timestamp_before,timestamp_after,accel_x,accel_y,accel_z,gyro_x,gyro_y,gryo_z
1496546095.0218019485,1496546095.0240879059, -1.1206, -0.1433, -0.2451, -5.9814,  4.7302, -5.9052
1496546095.0241720676,1496546095.0264580250, -1.1362, -0.1487, -0.2451, -5.9814,  4.7302, -5.9052
1496546095.0265278816,1496546095.0288090706, -1.1362, -0.1487, -0.2451, -5.9814,  4.7302, -5.9052
1496546095.0288779736,1496546095.0312759876, -1.1362, -0.1487, -0.2451, -5.9814,  4.7302, -5.9052
1496546095.0313448906,1496546095.0336270332, -1.1362, -0.1487, -0.2451, -5.4779,  5.1117, -6.1798
1496546095.0336959362,1496546095.0359749794, -1.1362, -0.1487, -0.2451, -5.4779,  5.1117, -6.1798
1496546095.0360438824,1496546095.0383229256, -1.1362, -0.1487, -0.2451, -5.4779,  5.1117, -6.1798
1496546095.0383911133,1496546095.0408968925, -1.1362, -0.1487, -0.2451, -5.4779,  5.1117, -6.1798
1496546095.0409679413,1496546095.0432479382, -1.1362, -0.1487, -0.2451, -4.5929,  4.9286, -5.9509
1496546095.0433170795,1496546095.0456008911, -1.1177, -0.1572, -0.2717, -4.5929,  4.9286, -5.9509
1496546095.0456700325,1496546095.0479500294, -1.1177, -0.1572, -0.2717, -4.5929,  4.9286, -5.9509
1496546095.0480189323,1496546095.0504229069, -1.1177, -0.1572, -0.2717, -4.5929,  4.9286, -5.9509
1496546095.0504930019,1496546095.0529339314, -1.1177, -0.1572, -0.2717, -4.5929,  4.9286, -4.8523
1496546095.0530049801,1496546095.0553820133, -1.1177, -0.1572, -0.2717, -3.7537,  4.9744, -4.8523
1496546095.0554509163,1496546095.0577290058, -1.1177, -0.1572, -0.2717, -3.7537,  4.9744, -4.8523
1496546095.0577969551,1496546095.0602190495, -1.1177, -0.1572, -0.2717, -3.7537,  4.9744, -4.8523
1496546095.0602879524,1496546095.0627560616, -1.1177, -0.1572, -0.2717, -3.7537,  4.9744, -4.8523
1496546095.0628249645,1496546095.0651938915, -1.1228, -0.1575, -0.2822, -3.5553,  4.9133, -4.6234
1496546095.0652630329,1496546095.0676329136, -1.1228, -0.1575, -0.2822, -3.5553,  4.9133, -4.6234
1496546095.0677020550,1496546095.0701179504, -1.1228, -0.1575, -0.2822, -3.5553,  4.9133, -4.6234
1496546095.0701880455,1496546095.0726130009, -1.1228, -0.1575, -0.2822, -3.5553,  4.9133, -4.6234
1496546095.0726819038,1496546095.0750949383, -1.1228, -0.1575, -0.2822, -1.7242,  5.2795, -4.2572
1496546095.0751640797,1496546095.0775740147, -1.1228, -0.1575, -0.2822, -1.7242,  5.2795, -4.2572
1496546095.0776429176,1496546095.0800549984, -1.1228, -0.1575, -0.2822, -1.7242,  5.2795, -4.2572
1496546095.0801239014,1496546095.0825440884, -1.1228, -0.1575, -0.2822, -1.7242,  5.2795, -4.2572
1496546095.0826129913,1496546095.0850210190, -1.1853, -0.1396, -0.2776, -1.7242,  5.2795, -4.0588
1496546095.0850899220,1496546095.0875000954, -1.1267, -0.1396, -0.2776, -1.2054,  5.1880, -4.0588
1496546095.0875699520,1496546095.0899798870, -1.1267, -0.1396, -0.2776, -1.2054,  5.1880, -4.0588
1496546095.0900490284,1496546095.0925090313, -1.1267, -0.1396, -0.2776, -1.2054,  5.1880, -4.0588
1496546095.0925779343,1496546095.0949869156, -1.1267, -0.1396, -0.2776, -1.2054,  5.1880, -0.1526
1496546095.0950570107,1496546095.0974659920, -1.1267, -0.1396, -0.2776, -1.5564,  4.9896, -3.8605
1496546095.0975348949,1496546095.0999441147, -1.1267, -0.1396, -0.2776, -1.5564,  4.9896, -3.8605
1496546095.1000130177,1496546095.1023390293, -1.1267, -0.1396, -0.2776, -1.5564,  4.9896, -3.8605
1496546095.1024079323,1496546095.1046960354, -1.1267, -0.1458, -0.2776, -1.5564,  4.9896, -3.8605
1496546095.1047639847,1496546095.1070530415, -1.1086, -0.1458, -0.2776, -0.8240,  4.6387, -4.4861
1496546095.1071240902,1496546095.1094069481, -1.1086, -0.1458, -0.2776, -0.8240,  4.6387, -4.4861
1496546095.1094770432,1496546095.1118268967, -1.1086, -0.1458, -0.2776, -0.8240,  4.6387, -4.4861
1496546095.1118969917,1496546095.1143069267, -1.1086, -0.1458, -0.2776, -0.8240,  4.6387, -4.4861
1496546095.1143770218,1496546095.1167819500, -1.1086, -0.1458, -0.2776, -0.8240,  4.6387, -4.4250
1496546095.1168520451,1496546095.1192579269, -1.1086, -0.1458, -0.2776, -0.4272,  4.1046, -4.4250
1496546095.1193280220,1496546095.1217479706, -1.1086, -0.1458, -0.2776, -0.4272,  4.1046, -4.4250
1496546095.1218180656,1496546095.1242270470, -1.1086, -0.1458, -0.2776, -0.4272,  4.1046, -4.4250
1496546095.1244280338,1496546095.1268401146, -1.1125, -0.1543, -0.2837, -0.4272,  4.1046, -0.5188
1496546095.1269109249,1496546095.1293189526, -1.1125, -0.1543, -0.2837,  0.5341,  4.4403, -3.8300
1496546095.1293900013,1496546095.1318070889, -1.1125, -0.1543, -0.2837,  0.5341,  4.4403, -3.8300
1496546095.1318778992,1496546095.1342859268, -1.1125, -0.1543, -0.2837,  0.5341,  4.4403, -3.8300
1496546095.1343560219,1496546095.1367659569, -1.1125, -0.1543, -0.2837,  0.5341,  4.4403, -3.8300
1496546095.1368360519,1496546095.1392440796, -1.1125, -0.1543, -0.2837,  0.8392,  4.7913, -3.4027
1496546095.1393148899,1496546095.1417329311, -1.1125, -0.1543, -0.2837,  0.8392,  4.7913, -3.4027
1496546095.1418030262,1496546095.1442110538, -1.1125, -0.1543, -0.2837,  0.8392,  4.7913, -3.4027
1496546095.1442809105,1496546095.1466910839, -1.1128, -0.1475, -0.2793,  0.8392,  4.7913, -3.4027
1496546095.1467618942,1496546095.1491670609, -1.1128, -0.1475, -0.2793,  0.8850,  4.8370, -3.4180
1496546095.1492369175,1496546095.1516470909, -1.1128, -0.1475, -0.2793,  0.8850,  4.8370, -3.4180
1496546095.1517179012,1496546095.1540079117, -1.1128, -0.1475, -0.2793,  0.8850,  4.8370, -3.4180
1496546095.1540780067,1496546095.1563649178, -1.1128, -0.1475, -0.2793,  0.8850,  4.8370, -3.4180
1496546095.1564350128,1496546095.1587240696, -1.1128, -0.1475, -0.2793,  0.8850,  4.8370, -3.5553
1496546095.1587939262,1496546095.1611430645, -1.1128, -0.1475, -0.2793,  1.0376,  4.4861, -3.5553
1496546095.1612119675,1496546095.1636230946, -1.1128, -0.1475, -0.2793,  1.0376,  4.4861, -3.5553
1496546095.1636929512,1496546095.1660981178, -1.1069, -0.1409, -0.2932,  1.0376,  4.4861, -3.5553
1496546095.1661670208,1496546095.1685779095, -1.1069, -0.1409, -0.2932,  1.0376,  4.4861, -3.5553
1496546095.1686470509,1496546095.1710999012, -1.1069, -0.1409, -0.2932,  0.1526,  3.9215, -3.1586
1496546095.1711709499,1496546095.1735789776, -1.1069, -0.1409, -0.2932,  0.1526,  3.9215, -3.1586
1496546095.1736490726,1496546095.1760649681, -1.1069, -0.1409, -0.2932,  0.1526,  3.9215, -3.1586
1496546095.1761360168,1496546095.1785418987, -1.1069, -0.1409, -0.2932,  0.1526,  3.9215, -3.1586
1496546095.1786119938,1496546095.1810259819, -1.1069, -0.1409, -0.2932, -0.5798,  4.0894, -2.6855
1496546095.1810970306,1496546095.1835060120, -1.1069, -0.1409, -0.2932, -0.5798,  4.0894, -2.6855
1496546095.1835761070,1496546095.1859879494, -1.1165, -0.1501, -0.2798, -0.5798,  4.0894, -2.6855
1496546095.1860589981,1496546095.1884670258, -1.1165, -0.1501, -0.2798, -0.5798,  4.0894, -2.6855
1496546095.1885368824,1496546095.1909630299, -1.1165, -0.1501, -0.2798, -0.5798,  3.5553, -2.1210
1496546095.1910340786,1496546095.1934409142, -1.1165, -0.1501, -0.2798, -0.8392,  3.5553, -2.1210
1496546095.1935119629,1496546095.1959209442, -1.1165, -0.1501, -0.2798, -0.8392,  3.5553, -2.1210
1496546095.1959900856,1496546095.1983990669, -1.1165, -0.1501, -0.2798, -0.8392,  3.5553, -2.1210
1496546095.1984689236,1496546095.2008819580, -1.1165, -0.1501, -0.2798, -0.8392,  3.5553, -2.1210
1496546095.2009520531,1496546095.2032320499, -1.1165, -0.1501, -0.2798,  0.1373,  3.9062, -1.2817
1496546095.2033019066,1496546095.2055850029, -1.1128, -0.1599, -0.2915,  0.1373,  3.9062, -1.2817
1496546095.2056539059,1496546095.2079350948, -1.1128, -0.1599, -0.2915,  0.1373,  3.9062, -1.2817
1496546095.2080049515,1496546095.2102890015, -1.1128, -0.1599, -0.2915,  0.1373,  3.9062, -1.2817
1496546095.2103600502,1496546095.2127640247, -1.1128, -0.1599, -0.2915,  1.7548,  3.5706, -0.2136
1496546095.2128338814,1496546095.2152440548, -1.1128, -0.1599, -0.2915,  1.7548,  3.5706, -0.2136
1496546095.2153151035,1496546095.2177228928, -1.1128, -0.1599, -0.2915,  1.7548,  3.5706, -0.2136
1496546095.2177929878,1496546095.2202000618, -1.1128, -0.1599, -0.2915,  1.7548,  3.5706, -0.2136
1496546095.2202699184,1496546095.2226960659, -1.1128, -0.1599, -0.2915,  1.7548,  3.1738, -0.9460
1496546095.2227659225,1496546095.2251749039, -1.1128, -0.1423, -0.2905,  1.9226,  3.1738, -0.9460
1496546095.2253561020,1496546095.2277688980, -1.1160, -0.1423, -0.2905,  1.9226,  3.1738, -0.9460
1496546095.2278389931,1496546095.2302498817, -1.1160, -0.1423, -0.2905,  1.9226,  3.1738, -0.9460
1496546095.2303199768,1496546095.2327399254, -1.1160, -0.1423, -0.2905,  1.9226,  3.1738, -1.7242
1496546095.2328090668,1496546095.2352180481, -1.1160, -0.1423, -0.2905,  1.4648,  2.9144, -1.7242
1496546095.2352869511,1496546095.2376930714, -1.1160, -0.1423, -0.2905,  1.4648,  2.9144, -1.7242
1496546095.2377619743,1496546095.2401690483, -1.1160, -0.1423, -0.2905,  1.4648,  2.9144, -1.7242
1496546095.2402389050,1496546095.2426950932, -1.1160, -0.1423, -0.2905,  1.4648,  2.9144, -1.7242
1496546095.2427649498,1496546095.2451739311, -1.1160, -0.1470, -0.2932,  1.8616,  2.3804, -1.2817
1496546095.2452430725,1496546095.2476561069, -1.1013, -0.1470, -0.2932,  1.8616,  2.3804, -1.2817
1496546095.2477250099,1496546095.2501330376, -1.1013, -0.1470, -0.2932,  1.8616,  2.3804, -1.2817
1496546095.2502019405,1496546095.2525129318, -1.1013, -0.1470, -0.2932,  1.8616,  2.3804, -1.2817
1496546095.2525830269,1496546095.2548680305, -1.1013, -0.1470, -0.2932,  2.4109,  2.9144, -0.9613
1496546095.2549390793,1496546095.2572240829, -1.1013, -0.1470, -0.2932,  2.4109,  2.9144, -0.9613
1496546095.2572948933,1496546095.2595810890, -1.1013, -0.1470, -0.2932,  2.4109,  2.9144, -0.9613
1496546095.2596499920,1496546095.2620139122, -1.1013, -0.1470, -0.2932,  2.4109,  2.9144, -0.9613
1496546095.2620849609,1496546095.2644910812, -1.1013, -0.1470, -0.2932,  2.4109,  2.9144, -0.6256
1496546095.2645609379,1496546095.2669649124, -1.1111, -0.1448, -0.2908,  1.6479,  2.5024, -0.6256
1496546095.2670350075,1496546095.2694430351, -1.1111, -0.1448, -0.2908,  1.6479,  2.5024, -0.6256
1496546095.2695150375,1496546095.2719318867, -1.1111, -0.1448, -0.2908,  1.6479,  2.5024, -0.6256
1496546095.2720029354,1496546095.2744100094, -1.1111, -0.1448, -0.2908,  1.6479,  2.5024, -0.6256
1496546095.2744801044,1496546095.2768869400, -1.1111, -0.1448, -0.2908,  2.0599,  2.5024, -1.4648
1496546095.2769560814,1496546095.2793641090, -1.1111, -0.1448, -0.2908,  2.0599,  2.5024, -1.4648
1496546095.2794339657,1496546095.2818970680, -1.1111, -0.1448, -0.2908,  2.0599,  2.5024, -1.4648
1496546095.2819659710,1496546095.2843708992, -1.1111, -0.1448, -0.2908,  2.0599,  2.5024, -1.4648
1496546095.2844400406,1496546095.2868471146, -1.1177, -0.1484, -0.2705,  2.3041,  2.4261, -1.3275
1496546095.2869160175,1496546095.2893199921, -1.1177, -0.1484, -0.2705,  2.3041,  2.4261, -1.3275
1496546095.2893888950,1496546095.2918000221, -1.1177, -0.1484, -0.2705,  2.3041,  2.4261, -1.3275
1496546095.2918689251,1496546095.2942750454, -1.1177, -0.1484, -0.2705,  2.3041,  2.4261, -1.3275
1496546095.2943439484,1496546095.2967519760, -1.1177, -0.1484, -0.2705,  2.3041,  1.7395, -1.8311
1496546095.2968220711,1496546095.2992329597, -1.1177, -0.1484, -0.2705,  2.6703,  1.7395, -1.8311
1496546095.2993030548,1496546095.3016769886, -1.1177, -0.1484, -0.2705,  2.6703,  1.7395, -1.8311
1496546095.3017458916,1496546095.3040308952, -1.1177, -0.1484, -0.2705,  2.6703,  1.7395, -1.8311
1496546095.3041009903,1496546095.3063900471, -1.1099, -0.1296, -0.3042,  2.6703,  1.7395, -1.8311
1496546095.3064589500,1496546095.3087449074, -1.1099, -0.1296, -0.3042,  3.0518,  1.4038, -1.8921
1496546095.3088150024,1496546095.3111770153, -1.1099, -0.1296, -0.3042,  3.0518,  1.4038, -1.8921
1496546095.3112459183,1496546095.3136110306, -1.1099, -0.1296, -0.3042,  3.0518,  1.4038, -1.8921
1496546095.3136808872,1496546095.3160479069, -1.1099, -0.1296, -0.3042,  3.0518,  1.4038, -1.8921
1496546095.3161180019,1496546095.3184869289, -1.1099, -0.1296, -0.3042,  2.5940,  0.9460, -1.8463
1496546095.3185579777,1496546095.3209459782, -1.1099, -0.1296, -0.3042,  2.5940,  0.9460, -1.8463
1496546095.3210170269,1496546095.3234260082, -1.1099, -0.1296, -0.3042,  2.5940,  0.9460, -1.8463
1496546095.3234961033,1496546095.3259050846, -1.1174, -0.1287, -0.2991,  2.5940,  0.9460, -1.8463
1496546095.3259749413,1496546095.3283829689, -1.1174, -0.1287, -0.2991,  2.5940,  1.4343, -1.9226
1496546095.3285610676,1496546095.3309810162, -1.1174, -0.1287, -0.2991,  2.1362,  1.4343, -1.9226
1496546095.3310499191,1496546095.3334579468, -1.1174, -0.1287, -0.2991,  2.1362,  1.4343, -1.9226
1496546095.3335270882,1496546095.3359339237, -1.1174, -0.1287, -0.2991,  2.1362,  1.4343, -1.9226
1496546095.3360040188,1496546095.3384130001, -1.1174, -0.1287, -0.2991,  2.1362,  1.4343, -2.0294
1496546095.3384830952,1496546095.3408989906, -1.1174, -0.1287, -0.2991,  1.3733,  0.7019, -2.0294
1496546095.3409700394,1496546095.3433771133, -1.1174, -0.1287, -0.2991,  1.3733,  0.7019, -2.0294
1496546095.3434469700,1496546095.3458549976, -1.1160, -0.1404, -0.2917,  1.3733,  0.7019, -2.0294
1496546095.3459250927,1496546095.3483350277, -1.1160, -0.1404, -0.2917,  1.3733,  0.7019, -2.0294
1496546095.3484048843,1496546095.3508069515, -1.1160, -0.1404, -0.2917,  2.3804,  0.2441, -2.4109
1496546095.3508770466,1496546095.3531639576, -1.1160, -0.1404, -0.2917,  2.3804,  0.2441, -2.4109
1496546095.3532350063,1496546095.3555231094, -1.1160, -0.1404, -0.2917,  2.3804,  0.2441, -2.4109
1496546095.3555929661,1496546095.3578751087, -1.1160, -0.1404, -0.2917,  2.3804,  0.2441, -2.4109
1496546095.3579449654,1496546095.3602221012, -1.1160, -0.1404, -0.2917,  2.3804, -0.0153, -2.1515
1496546095.3602929115,1496546095.3627240658, -1.1160, -0.1404, -0.2917,  3.4180, -0.0153, -2.1515
1496546095.3627951145,1496546095.3652040958, -1.1160, -0.1404, -0.3018,  3.4180, -0.0153, -2.1515
1496546095.3652739525,1496546095.3676800728, -1.1077, -0.1265, -0.3018,  3.4180, -0.0153, -2.1515
1496546095.3677508831,1496546095.3701610565, -1.1077, -0.1265, -0.3018,  3.4180, -0.0153, -2.7618
1496546095.3702321053,1496546095.3726840019, -1.1077, -0.1265, -0.3018,  3.7537, -0.3204, -2.7618
1496546095.3727550507,1496546095.3751659393, -1.1077, -0.1265, -0.3018,  3.7537, -0.3204, -2.7618
1496546095.3752360344,1496546095.3776409626, -1.1077, -0.1265, -0.3018,  3.7537, -0.3204, -2.7618
1496546095.3777120113,1496546095.3801219463, -1.1077, -0.1265, -0.3018,  3.7537, -0.3204, -2.7618
1496546095.3801920414,1496546095.3826079369, -1.1077, -0.1265, -0.3018,  2.5940, -0.6866, -2.8992
1496546095.3826789856,1496546095.3850860596, -1.1077, -0.0640, -0.3101,  2.5940, -0.6866, -2.8992
1496546095.3851580620,1496546095.3875699043, -1.1072, -0.1145, -0.3101,  2.5940, -0.6866, -2.8992
1496546095.3876419067,1496546095.3900449276, -1.1072, -0.1145, -0.3101,  2.5940, -0.6866, -2.8992
1496546095.3901159763,1496546095.3924419880, -1.1072, -0.1145, -0.3101,  1.2054, -1.1444, -3.4332
1496546095.3925130367,1496546095.3948020935, -1.1072, -0.1145, -0.3101,  1.2054, -1.1444, -3.4332
1496546095.3948719501,1496546095.3971569538, -1.1072, -0.1145, -0.3101,  1.2054, -1.1444, -3.4332
1496546095.3972260952,1496546095.3995120525, -1.1072, -0.1145, -0.3101,  1.2054, -1.1444, -3.4332
1496546095.3995819092,1496546095.4018979073, -1.1072, -0.1145, -0.3101,  1.2054, -1.1444, -3.6163
1496546095.4019689560,1496546095.4042549133, -1.1072, -0.1145, -0.3101, -0.3052, -1.1139, -3.6163
1496546095.4043250084,1496546095.4066140652, -1.1001, -0.1267, -0.3237, -0.3052, -1.1139, -3.6163
1496546095.4066829681,1496546095.4089679718, -1.1001, -0.1267, -0.3237, -0.3052, -1.1139, -3.6163
1496546095.4090371132,1496546095.4113700390, -1.1001, -0.1267, -0.3237, -0.3052, -1.1139, -3.6163
1496546095.4114410877,1496546095.4138479233, -1.1001, -0.1267, -0.3237, -2.3193, -1.8768, -3.5858
1496546095.4139170647,1496546095.4163210392, -1.1001, -0.1267, -0.3237, -2.3193, -1.8768, -3.5858
1496546095.4163899422,1496546095.4187979698, -1.1001, -0.1267, -0.3237, -2.3193, -1.8768, -3.5858
1496546095.4188659191,1496546095.4213171005, -1.1001, -0.1267, -0.3237, -2.3193, -1.8768, -3.5858
1496546095.4213850498,1496546095.4237968922, -1.1001, -0.1267, -0.3237, -3.0365, -2.8229, -3.9825
1496546095.4238660336,1496546095.4262740612, -1.1001, -0.1162, -0.3030, -3.0365, -2.8229, -3.9825
1496546095.4263439178,1496546095.4287550449, -1.1001, -0.1162, -0.3030, -3.0365, -2.8229, -3.9825
1496546095.4288249016,1496546095.4312360287, -1.1001, -0.1162, -0.3030, -3.0365, -2.8229, -3.9825
1496546095.4314119816,1496546095.4338219166, -1.1001, -0.1162, -0.3030, -3.0365, -2.8229, -4.1504
1496546095.4338920116,1496546095.4362959862, -1.1001, -0.1162, -0.3030, -3.9520, -2.7008, -4.1504
1496546095.4363670349,1496546095.4387769699, -1.1001, -0.1162, -0.3030, -3.9520, -2.7008, -4.1504
1496546095.4388480186,1496546095.4413011074, -1.1001, -0.1162, -0.3030, -3.9520, -2.7008, -4.1504
1496546095.4413709641,1496546095.4437789917, -1.1001, -0.1162, -0.3030, -3.9520, -2.7008, -4.1504
1496546095.4438500404,1496546095.4462599754, -1.1079, -0.1360, -0.3127, -5.3253, -2.7466, -4.4708
1496546095.4463291168,1496546095.4487369061, -1.1079, -0.1360, -0.3127, -5.3253, -2.7466, -4.4708
1496546095.4488060474,1496546095.4511940479, -1.1079, -0.1360, -0.3127, -5.3253, -2.7466, -4.4708
1496546095.4512639046,1496546095.4535520077, -1.1079, -0.1360, -0.3127, -5.3253, -2.7466, -4.4708
1496546095.4536209106,1496546095.4559040070, -1.1079, -0.1360, -0.3127, -6.0425, -3.1128, -4.4250
1496546095.4559729099,1496546095.4582619667, -1.1079, -0.1360, -0.3127, -6.0425, -3.1128, -4.4250
1496546095.4583311081,1496546095.4606149197, -1.1079, -0.1360, -0.3127, -6.0425, -3.1128, -4.4250
1496546095.4607589245,1496546095.4631640911, -1.1079, -0.1360, -0.3127, -6.0425, -3.1128, -4.4250
1496546095.4632339478,1496546095.4656410217, -1.1079, -0.1362, -0.3132, -6.0425, -3.1128, -4.4708
1496546095.4657099247,1496546095.4681179523, -1.1077, -0.1362, -0.3132, -5.9814, -3.0670, -4.4708
1496546095.4681859016,1496546095.4705929756, -1.1077, -0.1362, -0.3132, -5.9814, -3.0670, -4.4708
1496546095.4707140923,1496546095.4731268883, -1.1077, -0.1362, -0.3132, -5.9814, -3.0670, -4.4708
1496546095.4731960297,1496546095.4756040573, -1.1077, -0.1362, -0.3132, -5.9814, -3.0670, -4.4708
1496546095.4756729603,1496546095.4780879021, -1.1077, -0.1362, -0.3132, -6.5460, -2.8992, -4.5319
1496546095.4781570435,1496546095.4805600643, -1.1077, -0.1362, -0.3132, -6.5460, -2.8992, -4.5319
1496546095.4806289673,1496546095.4830360413, -1.1077, -0.1362, -0.3132, -6.5460, -2.8992, -4.5319
1496546095.4831049442,1496546095.4855101109, -1.1077, -0.1357, -0.2996, -6.5460, -2.8992, -4.5319
1496546095.4855790138,1496546095.4879920483, -1.1101, -0.1357, -0.2996, -6.6071, -3.6011, -4.8218
1496546095.4880609512,1496546095.4904661179, -1.1101, -0.1357, -0.2996, -6.6071, -3.6011, -4.8218
1496546095.4905350208,1496546095.4928429127, -1.1101, -0.1357, -0.2996, -6.6071, -3.6011, -4.8218
1496546095.4929120541,1496546095.4951920509, -1.1101, -0.1357, -0.2996, -6.6071, -3.6011, -4.8218
1496546095.4952609539,1496546095.4975450039, -1.1101, -0.1357, -0.2996, -6.6071, -3.6163, -4.9286
1496546095.4976139069,1496546095.4999010563, -1.1101, -0.1357, -0.2996, -6.3782, -3.6163, -4.9286
1496546095.4999690056,1496546095.5023629665, -1.1101, -0.1357, -0.2996, -6.3782, -3.6163, -4.9286
1496546095.5024309158,1496546095.5048370361, -1.1101, -0.1357, -0.2996, -6.3782, -3.6163, -4.9286
1496546095.5049059391,1496546095.5073099136, -1.1211, -0.1404, -0.2815, -6.3782, -3.6163, -4.9286
1496546095.5073781013,1496546095.5097820759, -1.1211, -0.1404, -0.2815, -6.4850, -3.5095, -5.1727
1496546095.5098509789,1496546095.5123000145, -1.1211, -0.1404, -0.2815, -6.4850, -3.5095, -5.1727
1496546095.5123701096,1496546095.5147759914, -1.1211, -0.1404, -0.2815, -6.4850, -3.5095, -5.1727
1496546095.5148448944,1496546095.5172479153, -1.1211, -0.1404, -0.2815, -6.4850, -3.5095, -5.1727
1496546095.5173180103,1496546095.5197279453, -1.1211, -0.1404, -0.2815, -6.5002, -3.2959, -5.2185
1496546095.5197970867,1496546095.5222129822, -1.1211, -0.1404, -0.2815, -6.5002, -3.2959, -5.2185
1496546095.5222818851,1496546095.5246899128, -1.1211, -0.1404, -0.2815, -6.5002, -3.2959, -5.2185
1496546095.5247590542,1496546095.5271658897, -1.1187, -0.1394, -0.2844, -6.5002, -3.2959, -5.2185
1496546095.5272350311,1496546095.5296409130, -1.1187, -0.1394, -0.2844, -6.2714, -3.9520, -5.5695
1496546095.5297100544,1496546095.5321300030, -1.1187, -0.1394, -0.2844, -6.2714, -3.9520, -5.5695
1496546095.5322000980,1496546095.5346119404, -1.1187, -0.1394, -0.2844, -6.2714, -3.9520, -5.5695
1496546095.5347850323,1496546095.5371940136, -1.1187, -0.1394, -0.2844, -6.2714, -3.9520, -5.5695
1496546095.5372629166,1496546095.5396699905, -1.1187, -0.1394, -0.2844, -6.2714, -3.7537, -5.1575
1496546095.5397388935,1496546095.5420849323, -1.1187, -0.1394, -0.2844, -6.4697, -3.7537, -5.1575
1496546095.5421550274,1496546095.5444428921, -1.1187, -0.1394, -0.2844, -6.4697, -3.7537, -5.1575
1496546095.5445120335,1496546095.5467970371, -1.1133, -0.1353, -0.2856, -6.4697, -3.7537, -5.1575
1496546095.5468659401,1496546095.5491490364, -1.1133, -0.1353, -0.2856, -6.4697, -3.7537, -5.1575
1496546095.5492179394,1496546095.5515680313, -1.1133, -0.1353, -0.2856, -6.4392, -3.6926, -5.3253
1496546095.5516369343,1496546095.5540440083, -1.1133, -0.1353, -0.2856, -6.4392, -3.6926, -5.3253
1496546095.5541129112,1496546095.5565149784, -1.1133, -0.1353, -0.2856, -6.4392, -3.6926, -5.3253
1496546095.5565829277,1496546095.5589869022, -1.1133, -0.1353, -0.2856, -6.4392, -3.6926, -5.3253
1496546095.5590560436,1496546095.5615038872, -1.1133, -0.1353, -0.2856, -6.4087, -4.1199, -5.5542
1496546095.5615730286,1496546095.5639801025, -1.1133, -0.1353, -0.2856, -6.4087, -4.1199, -5.5542
1496546095.5640480518,1496546095.5664610863, -1.1208, -0.1357, -0.2859, -6.4087, -4.1199, -5.5542
1496546095.5665290356,1496546095.5689389706, -1.1208, -0.1357, -0.2859, -6.4087, -4.1199, -5.5542
1496546095.5690069199,1496546095.5714209080, -1.1208, -0.1357, -0.2859, -6.4087, -4.8523, -5.4016
1496546095.5714910030,1496546095.5739049911, -1.1208, -0.1357, -0.2859, -5.7983, -4.8523, -5.4016
1496546095.5739738941,1496546095.5763809681, -1.1208, -0.1357, -0.2859, -5.7983, -4.8523, -5.4016
1496546095.5764501095,1496546095.5788578987, -1.1208, -0.1357, -0.2859, -5.7983, -4.8523, -5.4016
1496546095.5789260864,1496546095.5813438892, -1.1208, -0.1357, -0.2859, -5.7983, -4.8523, -5.4016
1496546095.5814130306,1496546095.5838229656, -1.1208, -0.1357, -0.2859, -5.1880, -5.2490, -5.2490
1496546095.5838909149,1496546095.5862989426, -1.1228, -0.1343, -0.2859, -5.1880, -5.2490, -5.2490
1496546095.5863680840,1496546095.5887739658, -1.1228, -0.1343, -0.2859, -5.1880, -5.2490, -5.2490
1496546095.5888440609,1496546095.5912640095, -1.1228, -0.1343, -0.2859, -5.1880, -5.2490, -5.2490
1496546095.5913329124,1496546095.5936160088, -1.1228, -0.1343, -0.2859, -5.5847, -5.3558, -5.7220
1496546095.5936861038,1496546095.5959711075, -1.1228, -0.1343, -0.2859, -5.5847, -5.3558, -5.7220
1496546095.5960390568,1496546095.5983250141, -1.1228, -0.1343, -0.2859, -5.5847, -5.3558, -5.7220
1496546095.5983939171,1496546095.6007230282, -1.1228, -0.1343, -0.2859, -5.5847, -5.3558, -5.7220
1496546095.6007909775,1496546095.6032021046, -1.1228, -0.1343, -0.2859, -5.5847, -5.9052, -5.7068
1496546095.6032710075,1496546095.6056780815, -1.1228, -0.1306, -0.2878, -5.6763, -5.9052, -5.7068
1496546095.6057469845,1496546095.6081519127, -1.1262, -0.1306, -0.2878, -5.6763, -5.9052, -5.7068
1496546095.6082220078,1496546095.6106278896, -1.1262, -0.1306, -0.2878, -5.6763, -5.9052, -5.7068
1496546095.6107480526,1496546095.6131620407, -1.1262, -0.1306, -0.2878, -5.6763, -5.9052, -6.0883
1496546095.6132309437,1496546095.6156411171, -1.1262, -0.1306, -0.2878, -6.4087, -5.6458, -6.0883
1496546095.6157109737,1496546095.6181190014, -1.1262, -0.1306, -0.2878, -6.4087, -5.6458, -6.0883
1496546095.6181890965,1496546095.6205940247, -1.1262, -0.1306, -0.2878, -6.4087, -5.6458, -6.0883
1496546095.6207120419,1496546095.6231191158, -1.1262, -0.1306, -0.2878, -6.4087, -5.6458, -6.0883
1496546095.6231880188,1496546095.6255939007, -1.1262, -0.1306, -0.2861, -6.3782, -5.6915, -6.5460
1496546095.6256630421,1496546095.6280710697, -1.1199, -0.1328, -0.2861, -6.3782, -5.6915, -6.5460
1496546095.6281390190,1496546095.6305429935, -1.1199, -0.1328, -0.2861, -6.3782, -5.6915, -6.5460
1496546095.6306118965,1496546095.6330220699, -1.1199, -0.1328, -0.2861, -6.3782, -5.6915, -6.5460
1496546095.6330900192,1496546095.6354990005, -1.1199, -0.1328, -0.2861, -6.6833, -6.2103, -6.8817
1496546095.6356658936,1496546095.6380779743, -1.1199, -0.1328, -0.2861, -6.6833, -6.2103, -6.8817
1496546095.6381471157,1496546095.6405580044, -1.1199, -0.1328, -0.2861, -6.6833, -6.2103, -6.8817
1496546095.6406259537,1496546095.6429119110, -1.1199, -0.1328, -0.2861, -6.6833, -6.2103, -6.8817
1496546095.6429800987,1496546095.6452651024, -1.1199, -0.1328, -0.3022, -6.6833, -6.2103, -7.2327
1496546095.6453340054,1496546095.6476130486, -1.1106, -0.1313, -0.3022, -6.3934, -6.6071, -7.2327
1496546095.6476809978,1496546095.6499619484, -1.1106, -0.1313, -0.3022, -6.3934, -6.6071, -7.2327
1496546095.6500310898,1496546095.6524119377, -1.1106, -0.1313, -0.3022, -6.3934, -6.6071, -7.2327
1496546095.6524810791,1496546095.6548869610, -1.1106, -0.1313, -0.3022, -6.3934, -6.6071, -7.2327
1496546095.6549570560,1496546095.6573610306, -1.1106, -0.1313, -0.3022, -6.4087, -6.5613, -7.5684
1496546095.6574299335,1496546095.6598379612, -1.1106, -0.1313, -0.3022, -6.4087, -6.5613, -7.5684
1496546095.6599071026,1496546095.6623220444, -1.1106, -0.1313, -0.3022, -6.4087, -6.5613, -7.5684
1496546095.6623919010,1496546095.6647939682, -1.1106, -0.1313, -0.3022, -6.4087, -6.5613, -7.5684
1496546095.6648640633,1496546095.6672680378, -1.1077, -0.1350, -0.2830, -6.2561, -6.6986, -7.8125
1496546095.6673378944,1496546095.6697449684, -1.1077, -0.1350, -0.2830, -6.2561, -6.6986, -7.8125
1496546095.6698141098,1496546095.6722190380, -1.1077, -0.1350, -0.2830, -6.2561, -6.6986, -7.8125
1496546095.6722888947,1496546095.6746950150, -1.1077, -0.1350, -0.2830, -6.2561, -6.6986, -7.8125
1496546095.6747651100,1496546095.6771700382, -1.1077, -0.1350, -0.2830, -6.2561, -6.8512, -7.9956
1496546095.6772398949,1496546095.6796441078, -1.1077, -0.1350, -0.2830, -7.1411, -6.8512, -7.9956
1496546095.6797130108,1496546095.6821339130, -1.1077, -0.1350, -0.2830, -7.1411, -6.8512, -7.9956
1496546095.6822040081,1496546095.6846139431, -1.1077, -0.1350, -0.2830, -7.1411, -6.8512, -7.9956
1496546095.6846840382,1496546095.6870970726, -1.1123, -0.1399, -0.2659, -7.1411, -6.8512, -7.9956
1496546095.6871650219,1496546095.6895790100, -1.1123, -0.1399, -0.2659, -6.9275, -6.9122, -8.1787
1496546095.6896491051,1496546095.6920299530, -1.1123, -0.1399, -0.2659, -6.9275, -6.9122, -8.1787
1496546095.6920990944,1496546095.6943840981, -1.1123, -0.1399, -0.2659, -6.9275, -6.9122, -8.1787
1496546095.6944530010,1496546095.6967370510, -1.1123, -0.1399, -0.2659, -6.9275, -6.9122, -8.1787
1496546095.6968059540,1496546095.6990880966, -1.1123, -0.1399, -0.2659, -6.8817, -6.6833, -8.2703
1496546095.6991589069,1496546095.7015318871, -1.1123, -0.1399, -0.2659, -6.8817, -6.6833, -8.2703
1496546095.7016019821,1496546095.7040090561, -1.1123, -0.1399, -0.2659, -6.8817, -6.6833, -8.2703
1496546095.7040801048,1496546095.7064929008, -1.1147, -0.1455, -0.2632, -6.8817, -6.6833, -8.2703
1496546095.7065629959,1496546095.7089729309, -1.1147, -0.1455, -0.2632, -6.8817, -6.4087, -8.1177
1496546095.7090430260,1496546095.7114970684, -1.1147, -0.1455, -0.2632, -6.9733, -6.4087, -8.1177
1496546095.7115659714,1496546095.7139708996, -1.1147, -0.1455, -0.2632, -6.9733, -6.4087, -8.1177
1496546095.7140409946,1496546095.7164449692, -1.1147, -0.1455, -0.2632, -6.9733, -6.4087, -8.1177
1496546095.7165150642,1496546095.7189230919, -1.1147, -0.1455, -0.2632, -6.9733, -6.4087, -8.3923
1496546095.7189919949,1496546095.7214100361, -1.1147, -0.1455, -0.2632, -6.9885, -6.7291, -8.3923
1496546095.7214798927,1496546095.7238869667, -1.1147, -0.1455, -0.2632, -6.9885, -6.7291, -8.3923
1496546095.7239561081,1496546095.7263660431, -1.1147, -0.1460, -0.2659, -6.9885, -6.7291, -8.3923
1496546095.7264349461,1496546095.7288448811, -1.1167, -0.1460, -0.2659, -6.9885, -6.7291, -8.3923
1496546095.7289159298,1496546095.7313370705, -1.1167, -0.1460, -0.2659, -7.3242, -6.5308, -8.3618
1496546095.7314081192,1496546095.7338149548, -1.1167, -0.1460, -0.2659, -7.3242, -6.5308, -8.3618
1496546095.7338850498,1496546095.7362871170, -1.1167, -0.1460, -0.2659, -7.3242, -6.5308, -8.3618
1496546095.7363569736,1496546095.7387599945, -1.1167, -0.1460, -0.2659, -7.3242, -6.5308, -8.3618
1496546095.7389359474,1496546095.7413299084, -1.1167, -0.1460, -0.2659, -7.3242, -6.3782, -8.7738
1496546095.7414000034,1496546095.7436850071, -1.1167, -0.1460, -0.2659, -7.3242, -6.3782, -8.7738
1496546095.7437539101,1496546095.7460310459, -1.1167, -0.1475, -0.2568, -7.3242, -6.3782, -8.7738
1496546095.7461009026,1496546095.7483830452, -1.1152, -0.1475, -0.2568, -7.3242, -6.3782, -8.7738
1496546095.7484529018,1496546095.7507419586, -1.1152, -0.1475, -0.2568, -7.3242, -6.3782, -9.3079
1496546095.7508099079,1496546095.7532219887, -1.1152, -0.1475, -0.2568, -7.5073, -6.3324, -9.3079
1496546095.7532920837,1496546095.7557010651, -1.1152, -0.1475, -0.2568, -7.5073, -6.3324, -9.3079
1496546095.7557699680,1496546095.7581770420, -1.1152, -0.1475, -0.2568, -7.5073, -6.3324, -9.3079
1496546095.7582459450,1496546095.7606930733, -1.1152, -0.1475, -0.2568, -7.5073, -6.3324, -9.3079
1496546095.7607629299,1496546095.7631731033, -1.1152, -0.1475, -0.2568, -7.7667, -6.4087, -9.0942
1496546095.7632429600,1496546095.7656540871, -1.1152, -0.1475, -0.2629, -7.7667, -6.4087, -9.0942
1496546095.7657239437,1496546095.7681260109, -1.1072, -0.1506, -0.2629, -7.7667, -6.4087, -9.0942
1496546095.7681961060,1496546095.7706019878, -1.1072, -0.1506, -0.2629, -7.7667, -6.4087, -9.0942
1496546095.7707250118,1496546095.7731320858, -1.1072, -0.1506, -0.2629, -7.7515, -6.5918, -9.3384
1496546095.7732009888,1496546095.7756090164, -1.1072, -0.1506, -0.2629, -7.7515, -6.5918, -9.3384
1496546095.7756779194,1496546095.7780840397, -1.1072, -0.1506, -0.2629, -7.7515, -6.5918, -9.3384
1496546095.7781538963,1496546095.7805600166, -1.1072, -0.1506, -0.2629, -7.7515, -6.5918, -9.3384
1496546095.7806301117,1496546095.7830369473, -1.1072, -0.1506, -0.2629, -7.7515, -6.2866, -9.6283
1496546095.7831070423,1496546095.7855129242, -1.1072, -0.1506, -0.2629, -7.7820, -6.2866, -9.6283
1496546095.7855839729,1496546095.7879879475, -1.1084, -0.1406, -0.2659, -7.7820, -6.2866, -9.6283
1496546095.7880580425,1496546095.7904629707, -1.1084, -0.1406, -0.2659, -7.7820, -6.2866, -9.6283
1496546095.7905330658,1496546095.7928409576, -1.1084, -0.1406, -0.2659, -7.7820, -6.2866, -9.9487
1496546095.7929110527,1496546095.7951970100, -1.1084, -0.1406, -0.2659, -8.1482, -5.7678, -9.9487
1496546095.7952680588,1496546095.7975559235, -1.1084, -0.1406, -0.2659, -8.1482, -5.7678, -9.9487
1496546095.7976260185,1496546095.7999160290, -1.1084, -0.1406, -0.2659, -8.1482, -5.7678, -9.9487
1496546095.7999858856,1496546095.8023650646, -1.1084, -0.1406, -0.2659, -8.1482, -5.7678, -9.9487
1496546095.8024361134,1496546095.8048489094, -1.1084, -0.1406, -0.2659, -8.3008, -5.9052,-10.2692
1496546095.8049230576,1496546095.8073329926, -1.1138, -0.1541, -0.2520, -8.3008, -5.9052,-10.2692
1496546095.8074069023,1496546095.8098189831, -1.1138, -0.1541, -0.2520, -8.3008, -5.9052,-10.2692
1496546095.8098928928,1496546095.8123099804, -1.1138, -0.1541, -0.2520, -8.3008, -5.9052,-10.2692
1496546095.8123838902,1496546095.8147881031, -1.1138, -0.1541, -0.2520, -4.3945, -6.3324,-10.4828
1496546095.8148610592,1496546095.8172659874, -1.1138, -0.1541, -0.2520, -7.5531, -6.3324,-10.4828
1496546095.8173389435,1496546095.8197460175, -1.1138, -0.1541, -0.2520, -7.5531, -6.3324,-10.4828
1496546095.8198189735,1496546095.8222320080, -1.1138, -0.1541, -0.2520, -7.5531, -6.3324,-10.4828
1496546095.8223059177,1496546095.8247110844, -1.1138, -0.1541, -0.2520, -7.5531, -6.3324,-10.2997
1496546095.8247830868,1496546095.8271958828, -1.1228, -0.1562, -0.2703, -7.4310, -5.8441,-10.2997
1496546095.8272690773,1496546095.8296771049, -1.1228, -0.1562, -0.2703, -7.4310, -5.8441,-10.2997
1496546095.8297500610,1496546095.8321731091, -1.1228, -0.1562, -0.2703, -7.4310, -5.8441,-10.2997
1496546095.8322460651,1496546095.8346550465, -1.1228, -0.1562, -0.2703, -7.4310, -5.8441,-10.2997
1496546095.8347280025,1496546095.8371388912, -1.1228, -0.1562, -0.2703, -7.2632, -5.6152,-10.2539
1496546095.8372108936,1496546095.8396201134, -1.1228, -0.1562, -0.2703, -7.2632, -5.6152,-10.2539
1496546095.8396930695,1496546095.8420469761, -1.1228, -0.1562, -0.2703, -7.2632, -5.6152,-10.2539
1496546095.8422288895,1496546095.8445179462, -1.1228, -0.1562, -0.2703, -7.2632, -5.6152,-10.2539
1496546095.8445899487,1496546095.8468830585, -1.1104, -0.1628, -0.2571, -6.3477, -5.3101, -9.9945
1496546095.8469529152,1496546095.8492391109, -1.1104, -0.1628, -0.2571, -6.3477, -5.3101, -9.9945
1496546095.8493089676,1496546095.8516969681, -1.1104, -0.1628, -0.2571, -6.3477, -5.3101, -9.9945
1496546095.8517670631,1496546095.8541750908, -1.1104, -0.1628, -0.2571, -6.3477, -5.3101, -9.9945
1496546095.8542459011,1496546095.8566479683, -1.1104, -0.1628, -0.2571, -6.3477, -5.3101, -9.7198
1496546095.8567190170,1496546095.8591239452, -1.1104, -0.1628, -0.2571, -6.0120, -4.8218, -9.7198
1496546095.8591940403,1496546095.8616058826, -1.1104, -0.1628, -0.2571, -6.0120, -4.8218, -9.7198
1496546095.8616769314,1496546095.8640799522, -1.1104, -0.1628, -0.2571, -6.0120, -4.8218, -9.7198
1496546095.8641500473,1496546095.8665590286, -1.1104, -0.1555, -0.2654, -6.0120, -4.8218, -9.7198
1496546095.8666300774,1496546095.8690350056, -1.1152, -0.1555, -0.2654, -6.0577, -4.8676,-10.2692
1496546095.8691070080,1496546095.8715310097, -1.1152, -0.1555, -0.2654, -6.0577, -4.8676,-10.2692
1496546095.8716049194,1496546095.8740110397, -1.1152, -0.1555, -0.2654, -6.0577, -4.8676,-10.2692
1496546095.8740839958,1496546095.8764860630, -1.1152, -0.1555, -0.2654, -6.0577, -4.8676,-10.2692
1496546095.8765590191,1496546095.8789660931, -1.1152, -0.1555, -0.2654, -5.5542, -4.4861,-10.0555
1496546095.8790390491,1496546095.8814570904, -1.1152, -0.1555, -0.2654, -5.5542, -4.4861,-10.0555
1496546095.8815310001,1496546095.8838191032, -1.1152, -0.1555, -0.2654, -5.5542, -4.4861,-10.0555
1496546095.8838911057,1496546095.8861749172, -1.1152, -0.1626, -0.2510, -5.5542, -4.4861,-10.0555
1496546095.8862481117,1496546095.8885319233, -1.0999, -0.1626, -0.2510, -5.5542, -4.7302, -9.8114
1496546095.8886010647,1496546095.8909440041, -1.0999, -0.1626, -0.2510, -5.6915, -4.7302, -9.8114
1496546095.8910140991,1496546095.8934209347, -1.0999, -0.1626, -0.2510, -5.6915, -4.7302, -9.8114
1496546095.8934910297,1496546095.8959009647, -1.0999, -0.1626, -0.2510, -5.6915, -4.7302, -9.8114
1496546095.8959720135,1496546095.8983800411, -1.0999, -0.1626, -0.2510, -5.6915, -4.7302, -9.8114
1496546095.8984510899,1496546095.9008998871, -1.0999, -0.1626, -0.2510, -6.6681, -4.3793, -9.2621
1496546095.9009709358,1496546095.9033789635, -1.0999, -0.1626, -0.2510, -6.6681, -4.3793, -9.2621
1496546095.9034500122,1496546095.9058630466, -1.0999, -0.1626, -0.2642, -6.6681, -4.3793, -9.2621
1496546095.9059329033,1496546095.9083449841, -1.1023, -0.1604, -0.2642, -6.6681, -4.3793, -9.2621
1496546095.9084150791,1496546095.9108259678, -1.1023, -0.1604, -0.2642, -7.0496, -3.6011, -9.3384
1496546095.9108960629,1496546095.9133040905, -1.1023, -0.1604, -0.2642, -7.0496, -3.6011, -9.3384
1496546095.9133749008,1496546095.9157800674, -1.1023, -0.1604, -0.2642, -7.0496, -3.6011, -9.3384
1496546095.9158511162,1496546095.9182560444, -1.1023, -0.1604, -0.2642, -7.0496, -3.6011, -9.3384
1496546095.9183259010,1496546095.9207439423, -1.1023, -0.1604, -0.2642, -7.2937, -3.8910, -8.6365
1496546095.9208140373,1496546095.9232199192, -1.1023, -0.1604, -0.2642, -7.2937, -3.8910, -8.6365
1496546095.9232909679,1496546095.9256939888, -1.1023, -0.1604, -0.2642, -7.2937, -3.8910, -8.6365
1496546095.9257640839,1496546095.9281721115, -1.0999, -0.1716, -0.2651, -7.2937, -3.8910, -8.6365
1496546095.9282419682,1496546095.9306468964, -1.0999, -0.1716, -0.2651, -7.2937, -3.8910, -8.0719
1496546095.9307599068,1496546095.9330439568, -1.0999, -0.1716, -0.2651, -7.6599, -3.3112, -8.0719
1496546095.9331140518,1496546095.9353990555, -1.0999, -0.1716, -0.2651, -7.6599, -3.3112, -8.0719
1496546095.9354679585,1496546095.9377510548, -1.0999, -0.1716, -0.2651, -7.6599, -3.3112, -8.0719
1496546095.9378199577,1496546095.9401040077, -1.0999, -0.1716, -0.2651, -7.6599, -3.3112, -8.0719
1496546095.9401729107,1496546095.9425599575, -1.0999, -0.1716, -0.2651, -7.6752, -3.6926, -7.4463
1496546095.9426290989,1496546095.9450399876, -1.0999, -0.1716, -0.2651, -7.6752, -3.6926, -7.4463
1496546095.9452130795,1496546095.9476249218, -1.1072, -0.1724, -0.2607, -7.6752, -3.6926, -7.4463
1496546095.9476940632,1496546095.9501039982, -1.1072, -0.1724, -0.2607, -7.6752, -3.6926, -7.4463
1496546095.9501729012,1496546095.9525969028, -1.1072, -0.1724, -0.2607, -7.4768, -2.9602, -6.4545
1496546095.9526669979,1496546095.9550778866, -1.1072, -0.1724, -0.2607, -7.4768, -2.9602, -6.4545
1496546095.9551470280,1496546095.9575560093, -1.1072, -0.1724, -0.2607, -7.4768, -2.9602, -6.4545
1496546095.9576249123,1496546095.9600379467, -1.1072, -0.1724, -0.2607, -7.4768, -2.9602, -6.4545
1496546095.9601070881,1496546095.9625248909, -1.1072, -0.1724, -0.2607, -7.4768, -2.3041, -4.8676
1496546095.9625949860,1496546095.9650039673, -1.1072, -0.1724, -0.2607, -7.4921, -2.3041, -4.8676
1496546095.9650731087,1496546095.9674780369, -1.1155, -0.1748, -0.2546, -7.4921, -2.3041, -4.8676
1496546095.9675459862,1496546095.9699499607, -1.1155, -0.1748, -0.2546, -7.4921, -2.3041, -4.8676
1496546095.9700191021,1496546095.9724290371, -1.1155, -0.1748, -0.2546, -7.4921, -2.3041, -4.8676
1496546095.9724979401,1496546095.9749019146, -1.1155, -0.1748, -0.2546, -7.3547, -1.5717, -4.3488
1496546095.9749720097,1496546095.9773759842, -1.1155, -0.1748, -0.2546, -7.3547, -1.5717, -4.3488
1496546095.9774448872,1496546095.9798529148, -1.1155, -0.1748, -0.2546, -7.3547, -1.5717, -4.3488
1496546095.9799220562,1496546095.9822568893, -1.1155, -0.1748, -0.2546, -7.3547, -1.5717, -4.3488
1496546095.9823260307,1496546095.9846129417, -1.1155, -0.1748, -0.2546, -7.5836, -1.4648, -3.6163
1496546095.9846808910,1496546095.9869680405, -1.1162, -0.1699, -0.2388, -7.5836, -1.4648, -3.6163
1496546095.9870359898,1496546095.9893219471, -1.1162, -0.1699, -0.2388, -7.5836, -1.4648, -3.6163
1496546095.9893898964,1496546095.9917430878, -1.1162, -0.1699, -0.2388, -7.5836, -1.4648, -3.6163
1496546095.9918110371,1496546095.9942169189, -1.1162, -0.1699, -0.2388, -7.5836, -1.5106, -2.6855
1496546095.9942851067,1496546095.9966959953, -1.1162, -0.1699, -0.2388, -7.4310, -1.5106, -2.6855
1496546095.9967660904,1496546095.9991719723, -1.1162, -0.1699, -0.2388, -7.4310, -1.5106, -2.6855
1496546095.9992411137,1496546096.0016880035, -1.1162, -0.1699, -0.2388, -7.4310, -1.5106, -2.6855
1496546096.0017569065,1496546096.0041680336, -1.1162, -0.1699, -0.2388, -7.4310, -1.5106, -2.6855
1496546096.0042359829,1496546096.0066480637, -1.1162, -0.1687, -0.2649, -8.2550, -1.5259, -2.3804
1496546096.0067169666,1496546096.0091259480, -1.1067, -0.1687, -0.2649, -8.2550, -1.5259, -2.3804
1496546096.0091969967,1496546096.0116128922, -1.1067, -0.1687, -0.2649, -8.2550, -1.5259, -2.3804
1496546096.0116829872,1496546096.0140891075, -1.1067, -0.1687, -0.2649, -8.2550, -1.5259, -2.3804
1496546096.0141589642,1496546096.0165638924, -1.1067, -0.1687, -0.2649, -8.4534, -1.1139, -2.1667
1496546096.0166339874,1496546096.0190410614, -1.1067, -0.1687, -0.2649, -8.4534, -1.1139, -2.1667
1496546096.0191099644,1496546096.0215270519, -1.1067, -0.1687, -0.2649, -8.4534, -1.1139, -2.1667
1496546096.0215969086,1496546096.0240008831, -1.1067, -0.1687, -0.2649, -8.4534, -1.1139, -2.1667
1496546096.0240709782,1496546096.0264770985, -1.1067, -0.1687, -0.2708, -9.4604, -1.0529, -1.9989
1496546096.0265460014,1496546096.0289518833, -1.1067, -0.1685, -0.2708, -9.4604, -1.0529, -1.9989
1496546096.0290210247,1496546096.0313971043, -1.1067, -0.1685, -0.2708, -9.4604, -1.0529, -1.9989
1496546096.0314679146,1496546096.0337519646, -1.1067, -0.1685, -0.2708, -9.4604, -1.0529, -1.9989
1496546096.0338220596,1496546096.0361061096, -1.1067, -0.1685, -0.2708, -9.4604, -1.0529, -1.2970
1496546096.0361759663,1496546096.0384590626, -1.1067, -0.1685, -0.2708,-10.1318, -0.7477, -1.2970
1496546096.0385320187,1496546096.0408279896, -1.1067, -0.1685, -0.2708,-10.1318, -0.7477, -1.2970
1496546096.0409009457,1496546096.0433089733, -1.1067, -0.1685, -0.2708,-10.1318, -0.7477, -1.2970
1496546096.0433828831,1496546096.0457909107, -1.1067, -0.1685, -0.2708,-10.1318, -0.7477, -1.2970
1496546096.0458650589,1496546096.0482649803, -1.1062, -0.1755, -0.2625, -9.0485, -0.5188, -0.6714
1496546096.0484409332,1496546096.0508949757, -1.1062, -0.1755, -0.2625, -9.0485, -0.5188, -0.6714
1496546096.0509669781,1496546096.0533730984, -1.1062, -0.1755, -0.2625, -9.0485, -0.5188, -0.6714
1496546096.0534439087,1496546096.0558540821, -1.1062, -0.1755, -0.2625, -9.0485, -0.5188, -0.6714
1496546096.0559248924,1496546096.0583341122, -1.1062, -0.1755, -0.2625, -8.9569, -0.3510, -0.0763
1496546096.0584061146,1496546096.0608189106, -1.1062, -0.1755, -0.2625, -8.9569, -0.3510, -0.0763
1496546096.0608909130,1496546096.0632989407, -1.1062, -0.1755, -0.2625, -8.9569, -0.3510, -0.0763
1496546096.0633709431,1496546096.0657749176, -1.1062, -0.1755, -0.2625, -8.9569, -0.3510, -0.0763
1496546096.0658469200,1496546096.0682530403, -1.1050, -0.1646, -0.2527, -8.9569,  0.5798,  0.5035
1496546096.0683250427,1496546096.0707468987, -1.1050, -0.1646, -0.2527, -9.2468,  0.5798,  0.5035
1496546096.0708189011,1496546096.0732250214, -1.1050, -0.1646, -0.2527, -9.2468,  0.5798,  0.5035
1496546096.0732979774,1496546096.0757009983, -1.1050, -0.1646, -0.2527, -9.2468,  0.5798,  0.5035
1496546096.0757730007,1496546096.0781788826, -1.1050, -0.1646, -0.2527, -9.2468,  0.5798,  0.5035
1496546096.0782499313,1496546096.0807070732, -1.1050, -0.1646, -0.2527, -9.7961,  0.2899,  1.6022
1496546096.0807778835,1496546096.0830709934, -1.1050, -0.1646, -0.2527, -9.7961,  0.2899,  1.6022
1496546096.0831410885,1496546096.0854239464, -1.1050, -0.1646, -0.2527, -9.7961,  0.2899,  1.6022
1496546096.0854949951,1496546096.0877780914, -1.0938, -0.1680, -0.2507, -9.7961,  0.2899,  1.6022
1496546096.0878479481,1496546096.0901360512, -1.0938, -0.1680, -0.2507, -9.7961,  0.9766,  2.4719
1496546096.0902070999,1496546096.0926029682, -1.0938, -0.1680, -0.2507, -9.7961,  0.9766,  2.4719
1496546096.0926740170,1496546096.0950849056, -1.0938, -0.1680, -0.2507, -9.7961,  0.9766,  2.4719
1496546096.0951559544,1496546096.0975608826, -1.0938, -0.1680, -0.2507, -9.7961,  0.9766,  2.4719
1496546096.0976328850,1496546096.1000359058, -1.0938, -0.1680, -0.2507, -9.7961,  0.9766,  3.6011
1496546096.1001079082,1496546096.1025309563, -1.0938, -0.1680, -0.2507, -9.9030,  0.9766,  3.6011
1496546096.1026029587,1496546096.1050109863, -1.0938, -0.1680, -0.2507, -9.9030,  0.9766,  3.6011
1496546096.1050829887,1496546096.1074910164, -1.1189, -0.1631, -0.2593, -9.9030,  0.9766,  3.6011
1496546096.1075630188,1496546096.1099710464, -1.1189, -0.1631, -0.2593, -9.9030,  0.9766,  4.3793
1496546096.1100630760,1496546096.1125199795, -1.1189, -0.1631, -0.2593, -9.4299,  1.3733,  4.3793
1496546096.1125910282,1496546096.1150040627, -1.1189, -0.1631, -0.2593, -9.4299,  1.3733,  4.3793
1496546096.1150751114,1496546096.1174819469, -1.1189, -0.1631, -0.2593, -9.4299,  1.3733,  4.3793
1496546096.1175520420,1496546096.1199638844, -1.1189, -0.1631, -0.2593, -9.4299,  1.3733,  4.3793
1496546096.1200349331,1496546096.1224899292, -1.1189, -0.1631, -0.2593, -8.8043,  1.9836,  5.2795
1496546096.1225609779,1496546096.1249721050, -1.1189, -0.1631, -0.2593, -8.8043,  1.9836,  5.2795
1496546096.1250419617,1496546096.1274518967, -1.1204, -0.1462, -0.2378, -8.8043,  1.9836,  5.2795
1496546096.1275219917,1496546096.1299319267, -1.1204, -0.1462, -0.2378, -8.8043,  1.9836,  5.2795
1496546096.1300029755,1496546096.1323270798, -1.1204, -0.1462, -0.2378, -8.7433,  2.4109,  5.5389
1496546096.1323978901,1496546096.1346879005, -1.1204, -0.1462, -0.2378, -8.7433,  2.4109,  5.5389
1496546096.1347570419,1496546096.1370398998, -1.1204, -0.1462, -0.2378, -8.7433,  2.4109,  5.5389
1496546096.1371090412,1496546096.1393918991, -1.1204, -0.1462, -0.2378, -8.7433,  2.4109,  5.5389
1496546096.1394619942,1496546096.1418130398, -1.1204, -0.1462, -0.2378, -8.7433,  2.4109,  5.7068
1496546096.1418828964,1496546096.1442899704, -1.1204, -0.1462, -0.2378, -8.8043,  2.3804,  5.7068
1496546096.1443600655,1496546096.1467659473, -1.1204, -0.1462, -0.2571, -8.8043,  2.3804,  5.7068
1496546096.1468369961,1496546096.1492409706, -1.1267, -0.1372, -0.2571, -8.8043,  2.3804,  5.7068
1496546096.1494109631,1496546096.1518249512, -1.1267, -0.1372, -0.2571, -8.8043,  2.3804,  5.7068
1496546096.1518950462,1496546096.1543030739, -1.1267, -0.1372, -0.2571, -9.6283,  2.7161,  5.1422
1496546096.1543729305,1496546096.1567780972, -1.1267, -0.1372, -0.2571, -9.6283,  2.7161,  5.1422
1496546096.1568489075,1496546096.1592519283, -1.1267, -0.1372, -0.2571, -9.6283,  2.7161,  5.1422
1496546096.1593220234,1496546096.1617410183, -1.1267, -0.1372, -0.2571, -9.6283,  2.7161,  5.1422
1496546096.1618111134,1496546096.1642179489, -1.1267, -0.1372, -0.2571, -9.8267,  2.9449,  4.6387
1496546096.1642880440,1496546096.1666901112, -1.1267, -0.1372, -0.2686, -9.8267,  2.9449,  4.6387
1496546096.1667609215,1496546096.1691639423, -1.1230, -0.1367, -0.2686, -9.8267,  2.9449,  4.6387
1496546096.1692349911,1496546096.1716830730, -1.1230, -0.1367, -0.2686, -9.8267,  2.9449,  4.6387
1496546096.1717538834,1496546096.1741600037, -1.1230, -0.1367, -0.2686, -9.8267,  2.8534,  4.8370
1496546096.1742300987,1496546096.1766300201, -1.1230, -0.1367, -0.2686,-10.6812,  2.8534,  4.8370
1496546096.1767029762,1496546096.1791090965, -1.1230, -0.1367, -0.2686,-10.6812,  2.8534,  4.8370
1496546096.1791820526,1496546096.1815619469, -1.1230, -0.1367, -0.2686,-10.6812,  2.8534,  4.8370
1496546096.1816360950,1496546096.1839189529, -1.1230, -0.1367, -0.2686,-10.6812,  2.8534,  4.8370
1496546096.1839919090,1496546096.1862769127, -1.1230, -0.1367, -0.2686,-11.1237,  3.4180,  4.8218
1496546096.1863510609,1496546096.1886379719, -1.1050, -0.1433, -0.2686,-11.1237,  3.4180,  4.8218
1496546096.1887109280,1496546096.1910231113, -1.1050, -0.1433, -0.2686,-11.1237,  3.4180,  4.8218
1496546096.1910970211,1496546096.1935040951, -1.1050, -0.1433, -0.2686,-11.1237,  3.4180,  4.8218
1496546096.1935770512,1496546096.1959810257, -1.1050, -0.1433, -0.2686,-10.4675,  3.6011,  5.4626
1496546096.1960549355,1496546096.1984589100, -1.1050, -0.1433, -0.2686,-10.4675,  3.6011,  5.4626
1496546096.1985330582,1496546096.2009499073, -1.1050, -0.1433, -0.2686,-10.4675,  3.6011,  5.4626
1496546096.2010231018,1496546096.2034349442, -1.1050, -0.1433, -0.2686,-10.4675,  3.6011,  5.4626
1496546096.2035090923,1496546096.2059199810, -1.1050, -0.1433, -0.2686,-10.4675,  3.6469,  5.9509
1496546096.2059929371,1496546096.2084040642, -1.1223, -0.1353, -0.2869,-10.1318,  3.6469,  5.9509
1496546096.2084770203,1496546096.2108979225, -1.1223, -0.1353, -0.2869,-10.1318,  3.6469,  5.9509
1496546096.2109711170,1496546096.2133760452, -1.1223, -0.1353, -0.2869,-10.1318,  3.6469,  5.9509
1496546096.2134490013,1496546096.2158529758, -1.1223, -0.1353, -0.2869,-10.1318,  3.6469,  5.4474
1496546096.2159259319,1496546096.2183310986, -1.1223, -0.1353, -0.2869, -9.9182,  3.5706,  5.4474
1496546096.2184009552,1496546096.2208130360, -1.1223, -0.1353, -0.2869, -9.9182,  3.5706,  5.4474
1496546096.2208828926,1496546096.2232880592, -1.1223, -0.1353, -0.2869, -9.9182,  3.5706,  5.4474
1496546096.2233579159,1496546096.2257609367, -1.1223, -0.1353, -0.2869, -9.9182,  3.5706,  5.4474
1496546096.2258310318,1496546096.2282350063, -1.1235, -0.1196, -0.2766, -9.0332,  3.2349,  4.8218
1496546096.2283070087,1496546096.2307219505, -1.1235, -0.1196, -0.2766, -9.0332,  3.2349,  4.8218
1496546096.2307929993,1496546096.2330830097, -1.1235, -0.1196, -0.2766, -9.0332,  3.2349,  4.8218
1496546096.2331531048,1496546096.2354369164, -1.1235, -0.1196, -0.2766, -9.0332,  3.2349,  4.8218
1496546096.2355079651,1496546096.2377879620, -1.1235, -0.1196, -0.2766, -8.8043,  3.4180,  4.0131
1496546096.2378590107,1496546096.2401440144, -1.1235, -0.1196, -0.2766, -8.8043,  3.4180,  4.0131
1496546096.2402150631,1496546096.2426059246, -1.1235, -0.1196, -0.2766, -8.8043,  3.4180,  4.0131
1496546096.2426769733,1496546096.2450859547, -1.1235, -0.1196, -0.2766, -8.8043,  3.4180,  4.0131
1496546096.2451560497,1496546096.2475609779, -1.1357, -0.1055, -0.2791, -8.8043,  3.4180,  3.2501
1496546096.2476329803,1496546096.2500369549, -1.1357, -0.1055, -0.2791, -8.6365,  3.6926,  3.2501
1496546096.2501080036,1496546096.2525260448, -1.1357, -0.1055, -0.2791, -8.6365,  3.6926,  3.2501
1496546096.2527019978,1496546096.2551140785, -1.1357, -0.1055, -0.2791, -8.6365,  3.6926,  3.2501
1496546096.2551860809,1496546096.2575969696, -1.1357, -0.1055, -0.2791, -8.6365,  3.6926,  3.2501
1496546096.2576680183,1496546096.2600769997, -1.1357, -0.1055, -0.2791,-10.2081,  3.0212,  1.3733
1496546096.2601509094,1496546096.2625689507, -1.1357, -0.1055, -0.2791,-10.2081,  3.0212,  1.3733
1496546096.2626430988,1496546096.2650489807, -1.1357, -0.1055, -0.2791,-10.2081,  3.0212,  1.3733
1496546096.2651219368,1496546096.2675280571, -1.1182, -0.1042, -0.2993,-10.2081,  3.0212,  1.3733
1496546096.2676019669,1496546096.2700099945, -1.1182, -0.1042, -0.2993,-11.0931,  2.5177,  0.0153
1496546096.2700850964,1496546096.2725040913, -1.1182, -0.1042, -0.2993,-11.0931,  2.5177,  0.0153
1496546096.2725799084,1496546096.2749910355, -1.1182, -0.1042, -0.2993,-11.0931,  2.5177,  0.0153
1496546096.2750670910,1496546096.2774789333, -1.1182, -0.1042, -0.2993,-11.0931,  2.5177,  0.0153
1496546096.2775540352,1496546096.2799639702, -1.1182, -0.1042, -0.2993,-10.7117,  1.6785, -1.1749
1496546096.2800381184,1496546096.2824099064, -1.1182, -0.1042, -0.2993,-10.7117,  1.6785, -1.1749
1496546096.2824840546,1496546096.2847740650, -1.1182, -0.1042, -0.2993,-10.7117,  1.6785, -1.1749
1496546096.2848470211,1496546096.2871379852, -1.1182, -0.1094, -0.3003,-10.7117,  1.6785, -1.1749
1496546096.2872109413,1496546096.2894968987, -1.1157, -0.1094, -0.3003,-10.7117,  1.6785, -1.1749
1496546096.2895700932,1496546096.2919399738, -1.1157, -0.1094, -0.3003,-10.3149,  1.1597, -2.4567
1496546096.2920138836,1496546096.2944190502, -1.1157, -0.1094, -0.3003,-10.3149,  1.1597, -2.4567
1496546096.2944929600,1496546096.2969009876, -1.1157, -0.1094, -0.3003,-10.3149,  1.1597, -2.4567
1496546096.2969748974,1496546096.2993841171, -1.1157, -0.1094, -0.3003,-10.3149,  1.1597, -2.4567
1496546096.2994570732,1496546096.3019120693, -1.1157, -0.1094, -0.3003, -9.3842,  0.2136, -3.0670
1496546096.3019840717,1496546096.3043940067, -1.1157, -0.1094, -0.3003, -9.3842,  0.2136, -3.0670
1496546096.3044660091,1496546096.3068759441, -1.1157, -0.1094, -0.3054, -9.3842,  0.2136, -3.0670
1496546096.3069479465,1496546096.3093559742, -1.1250, -0.1077, -0.3054, -9.3842,  0.2136, -3.0670
1496546096.3094279766,1496546096.3119308949, -1.1250, -0.1077, -0.3054, -8.3618, -0.7019, -3.5553
1496546096.3120028973,1496546096.3144121170, -1.1250, -0.1077, -0.3054, -8.3618, -0.7019, -3.5553
1496546096.3144829273,1496546096.3168950081, -1.1250, -0.1077, -0.3054, -8.3618, -0.7019, -3.5553
1496546096.3169670105,1496546096.3193819523, -1.1250, -0.1077, -0.3054, -8.3618, -0.7019, -3.5553
1496546096.3194539547,1496546096.3219029903, -1.1250, -0.1077, -0.3054, -8.3618, -1.1139, -4.3182
1496546096.3219730854,1496546096.3243839741, -1.1250, -0.1077, -0.3054, -7.4310, -1.1139, -4.3182
1496546096.3244540691,1496546096.3268659115, -1.1250, -0.1077, -0.2927, -7.4310, -1.1139, -4.3182
1496546096.3269360065,1496546096.3293440342, -1.1211, -0.1069, -0.2927, -7.4310, -1.1139, -4.3182
1496546096.3294129372,1496546096.3317680359, -1.1211, -0.1069, -0.2927, -7.4310, -1.1139, -4.3182
1496546096.3318369389,1496546096.3341209888, -1.1211, -0.1069, -0.2927, -7.4463, -1.7548, -5.5389
1496546096.3341898918,1496546096.3364679813, -1.1211, -0.1069, -0.2927, -7.4463, -1.7548, -5.5389
1496546096.3365359306,1496546096.3388259411, -1.1211, -0.1069, -0.2927, -7.4463, -1.7548, -5.5389
1496546096.3388950825,1496546096.3412148952, -1.1211, -0.1069, -0.2927, -7.4463, -1.7548, -5.5389
1496546096.3412840366,1496546096.3436939716, -1.1211, -0.1069, -0.2927, -7.8888, -2.4109, -6.6223
1496546096.3437631130,1496546096.3461680412, -1.1211, -0.1069, -0.2927, -7.8888, -2.4109, -6.6223
1496546096.3462369442,1496546096.3486459255, -1.1338, -0.1099, -0.2793, -7.8888, -2.4109, -6.6223
1496546096.3487150669,1496546096.3511331081, -1.1338, -0.1099, -0.2793, -7.8888, -2.4109, -6.6223
1496546096.3512020111,1496546096.3536100388, -1.1338, -0.1099, -0.2793, -7.8888, -2.2278, -6.8207
1496546096.3536789417,1496546096.3560860157, -1.1338, 