timestamp_before,timestamp_after,accel_x,accel_y,accel_z,gyro_x,gyro_y,gryo_z
1496545377.0264151096,1496545377.0286939144, -0.9124, -0.5334,  0.4194,-14.3433,-33.3099,-38.7726
1496545377.0287868977,1496545377.0312778950, -0.9124, -0.5334,  0.4194,-14.3433,-33.3099,-38.7726
1496545377.0313589573,1496545377.0336449146, -0.9124, -0.5334,  0.4194,-25.3296,-34.8358,-42.5110
1496545377.0337231159,1496545377.0360729694, -0.9124, -0.5334,  0.4194,-25.3296,-34.8358,-42.5110
1496545377.0361509323,1496545377.0384318829, -0.9124, -0.5334,  0.4194,-25.3296,-34.8358,-42.5110
1496545377.0385100842,1496545377.0410299301, -0.9124, -0.5334,  0.4194,-25.3296,-34.8358,-42.5110
1496545377.0411100388,1496545377.0435209274, -0.9124, -0.5334,  0.4194,-30.7465,-34.1797,-44.6777
1496545377.0436000824,1496545377.0458838940, -0.9124, -0.5334,  0.4194,-30.7465,-34.1797,-44.6777
1496545377.0459620953,1496545377.0482420921, -0.7793, -0.7429,  0.1423,-30.7465,-34.1797,-44.6777
1496545377.0483200550,1496545377.0506041050, -0.7793, -0.7429,  0.1423,-30.7465,-34.1797,-44.6777
1496545377.0512020588,1496545377.0535690784, -0.7793, -0.7429,  0.1423,-30.7465,-34.1797,-44.0979
1496545377.0536479950,1496545377.0559248924, -0.7793, -0.7429,  0.1423,-30.3650,-31.8604,-44.0979
1496545377.0560030937,1496545377.0588719845, -0.7793, -0.7429,  0.1423,-30.3650,-31.8604,-44.0979
1496545377.0589520931,1496545377.0612978935, -0.7793, -0.7429,  0.1423,-30.3650,-31.8604,-44.0979
1496545377.0613760948,1496545377.0637509823, -0.7793, -0.7429,  0.1423,-30.3650,-31.8604,-45.1965
1496545377.0638289452,1496545377.0661048889, -0.7793, -0.7429,  0.1423,-29.0222,-30.8380,-45.1965
1496545377.0661830902,1496545377.0690569878, -0.6113, -0.8108,  0.0730,-29.0222,-30.8380,-45.1965
1496545377.0691390038,1496545377.0716030598, -0.6113, -0.8108,  0.0730,-29.0222,-30.8380,-45.1965
1496545377.0716829300,1496545377.0741229057, -0.6113, -0.8108,  0.0730,-29.0222,-30.8380,-45.1965
1496545377.0742011070,1496545377.0766139030, -0.6113, -0.8108,  0.0730,-28.6102,-27.6184,-45.2728
1496545377.0766921043,1496545377.0795540810, -0.6113, -0.8108,  0.0730,-28.6102,-27.6184,-45.2728
1496545377.0796339512,1496545377.0820379257, -0.6113, -0.8108,  0.0730,-28.6102,-27.6184,-45.2728
1496545377.0821180344,1496545377.0844039917, -0.6113, -0.8108,  0.0730,-28.6102,-27.6184,-45.2728
1496545377.0844829082,1496545377.0867629051, -0.6113, -0.8108,  0.1089,-27.5421,-24.1699,-46.1426
1496545377.0868420601,1496545377.0897130966, -0.5996, -0.7969,  0.1089,-27.5421,-24.1699,-46.1426
1496545377.0897939205,1496545377.0920829773, -0.5996, -0.7969,  0.1089,-27.5421,-24.1699,-46.1426
1496545377.0921618938,1496545377.0944550037, -0.5996, -0.7969,  0.1089,-27.5421,-24.1699,-46.1426
1496545377.0945339203,1496545377.0968160629, -0.5996, -0.7969,  0.1089,-26.6266,-21.5149,-47.3938
1496545377.0968940258,1496545377.0997750759, -0.5996, -0.7969,  0.1089,-26.6266,-21.5149,-47.3938
1496545377.0998549461,1496545377.1022279263, -0.5996, -0.7969,  0.1089,-26.6266,-21.5149,-47.3938
1496545377.1023080349,1496545377.1047179699, -0.5996, -0.7969,  0.1089,-26.6266,-21.5149,-47.3938
1496545377.1047968864,1496545377.1072049141, -0.5996, -0.7661,  0.1411,-26.9012,-17.3035,-49.5605
1496545377.1072831154,1496545377.1096839905, -0.5981, -0.7661,  0.1411,-26.9012,-17.3035,-49.5605
1496545377.1097629070,1496545377.1121819019, -0.5981, -0.7661,  0.1411,-26.9012,-17.3035,-49.5605
1496545377.1122601032,1496545377.1146709919, -0.5981, -0.7661,  0.1411,-26.9012,-17.3035,-49.5605
1496545377.1147489548,1496545377.1171538830, -0.5981, -0.7661,  0.1411,-26.9012,-15.7166,-53.8025
1496545377.1172308922,1496545377.1202180386, -0.5981, -0.7661,  0.1411,-32.5623,-15.7166,-53.8025
1496545377.1202979088,1496545377.1227219105, -0.5981, -0.7661,  0.1411,-32.5623,-15.7166,-53.8025
1496545377.1228001118,1496545377.1252028942, -0.5981, -0.7661,  0.1411,-32.5623,-15.7166,-53.8025
1496545377.1252810955,1496545377.1276888847, -0.5193, -0.9138,  0.2095,-32.5623,-12.8021,-51.2085
1496545377.1277680397,1496545377.1301720142, -0.5193, -0.9138,  0.2095,-33.1573,-12.8021,-51.2085
1496545377.1302490234,1496545377.1326038837, -0.5193, -0.9138,  0.2095,-33.1573,-12.8021,-51.2085
1496545377.1328248978,1496545377.1351130009, -0.5193, -0.9138,  0.2095,-33.1573,-12.8021,-51.2085
1496545377.1351909637,1496545377.1376399994, -0.5193, -0.9138,  0.2095,-33.1573,-12.8021,-47.3022
1496545377.1377270222,1496545377.1400220394, -0.5193, -0.9138,  0.2095,-27.1454, -7.4310,-48.1873
1496545377.1401000023,1496545377.1425240040, -0.5193, -0.9138,  0.2095,-27.1454, -7.4310,-48.1873
1496545377.1426010132,1496545377.1450068951, -0.5193, -0.9138,  0.2095,-27.1454, -7.4310,-48.1873
1496545377.1450839043,1496545377.1474919319, -0.5193, -1.0159,  0.1775,-27.1454, -7.4310,-48.1873
1496545377.1475689411,1496545377.1499760151, -0.6733, -1.0159,  0.1775,  1.2360,-20.4163,-43.5944
1496545377.1500520706,1496545377.1525039673, -0.6733, -1.0159,  0.1775,  1.2360,-20.4163,-43.5944
1496545377.1525800228,1496545377.1549890041, -0.6733, -1.0159,  0.1775,  1.2360,-20.4163,-43.5944
1496545377.1550650597,1496545377.1574690342, -0.6733, -1.0159,  0.1775,  1.2360,-20.4163,-43.5944
1496545377.1575450897,1496545377.1599519253, -0.6733, -1.0159,  0.1775, 13.0157,-30.7159,-34.3781
1496545377.1600310802,1496545377.1624820232, -0.6733, -1.0159,  0.1775, 13.0157,-30.7159,-34.3781
1496545377.1625599861,1496545377.1649649143, -0.6733, -1.0159,  0.1775, 13.0157,-30.7159,-34.3781
1496545377.1650440693,1496545377.1674470901, -0.6733, -0.7627,  0.1667, 13.0157,-30.7159,-34.3781
1496545377.1675260067,1496545377.1705069542, -0.4260, -0.7627,  0.1667, 23.1934,-25.0397,-29.0833
1496545377.1705870628,1496545377.1728940010, -0.4260, -0.7627,  0.1667, 23.1934,-25.0397,-29.0833
1496545377.1729719639,1496545377.1752529144, -0.4260, -0.7627,  0.1667, 23.1934,-25.0397,-29.0833
1496545377.1753311157,1496545377.1776158810, -0.4260, -0.7627,  0.1667, 23.1934,-25.0397,-29.0833
1496545377.1776940823,1496545377.1799750328, -0.4260, -0.7627,  0.1667, 23.1934,-25.0397,-25.1770
1496545377.1800539494,1496545377.1823430061, -0.4260, -0.7627,  0.1667, 25.5280,-21.1182,-25.1770
1496545377.1824209690,1496545377.1847081184, -0.4260, -0.7627,  0.1667, 25.5280,-21.1182,-25.1770
1496545377.1847860813,1496545377.1870720387, -0.4260, -0.9502,  0.1182, 25.5280,-21.1182,-25.1770
1496545377.1871509552,1496545377.1894350052, -0.4597, -0.9451,  0.1182, 25.5280,-21.1182,-25.1770
1496545377.1895139217,1496545377.1921529770, -0.4597, -0.9451,  0.1182, 16.8304,-18.6310,-21.4844
1496545377.1922340393,1496545377.1946399212, -0.4597, -0.9451,  0.1182, 16.8304,-18.6310,-21.4844
1496545377.1947200298,1496545377.1971240044, -0.4597, -0.9451,  0.1182, 16.8304,-18.6310,-21.4844
1496545377.1972029209,1496545377.1996068954, -0.4597, -0.9451,  0.1182, 16.8304,-18.6310,-21.4844
1496545377.1996860504,1496545377.2020339966, -0.4597, -0.9451,  0.1182, 12.4664,-17.0288,-20.7367
1496545377.2021129131,1496545377.2043960094, -0.4597, -0.9451,  0.1182, 12.4664,-17.0288,-20.7367
1496545377.2044739723,1496545377.2067549229, -0.4597, -0.9451,  0.0557, 12.4664,-17.0288,-20.7367
1496545377.2068340778,1496545377.2091128826, -0.5496, -1.0564,  0.0615, 12.4664,-17.0288,-20.7367
1496545377.2091910839,1496545377.2115640640, -0.5496, -1.0564,  0.0615, 12.4664,-17.0288,-12.9242
1496545377.2116429806,1496545377.2140500546, -0.5496, -1.0564,  0.0615,  8.1940,-12.9395,-12.0239
1496545377.2141270638,1496545377.2165360451, -0.5496, -1.0564,  0.0615,  8.1940,-12.9395,-12.0239
1496545377.2166130543,1496545377.2190229893, -0.5496, -1.0564,  0.0615,  8.1940,-12.9395,-12.0239
1496545377.2190990448,1496545377.2214848995, -0.5496, -1.0564,  0.0615,  8.1940,-12.9395,-12.0239
1496545377.2215609550,1496545377.2238450050, -0.5496, -1.0564,  0.0615,  1.2054, -9.6741, -3.4943
1496545377.2239151001,1496545377.2261979580, -0.5496, -1.0564,  0.0615,  1.2054, -9.6741, -3.4943
1496545377.2262680531,1496545377.2285509109, -0.6274, -0.8887,  0.2168,  1.2054, -9.6741, -3.4943
1496545377.2286219597,1496545377.2310640812, -0.6274, -0.8887,  0.2168,  1.2054, -9.6741, -3.4943
1496545377.2311348915,1496545377.2334189415, -0.6274, -0.8887,  0.2168,  1.2054, -7.1716,  3.0670
1496545377.2336161137,1496545377.2358999252, -0.6274, -0.8887,  0.2168, -5.1270, -7.1716,  3.0670
1496545377.2359700203,1496545377.2382609844, -0.6274, -0.8887,  0.2168, -5.1270, -7.1716,  3.0670
1496545377.2383310795,1496545377.2409510612, -0.6274, -0.8887,  0.2168, -5.1270, -7.1716,  3.0670
1496545377.2410230637,1496545377.2433109283, -0.6274, -0.8887,  0.2168, -5.1270, -7.1716, 10.8795
1496545377.2433860302,1496545377.2456619740, -0.6274, -0.8887,  0.2168, -7.7209, -3.5400,  8.4991
1496545377.2457330227,1496545377.2480170727, -0.6343, -0.8711,  0.3467, -7.7209, -3.5400,  8.4991
1496545377.2480878830,1496545377.2503669262, -0.6343, -0.8711,  0.3467, -7.7209, -3.5400,  8.4991
1496545377.2504379749,1496545377.2528510094, -0.6343, -0.8711,  0.3467, -7.7209, -3.5400,  8.4991
1496545377.2529239655,1496545377.2552959919, -0.6343, -0.8711,  0.3467, -5.8594, -2.0752, 13.4430
1496545377.2553699017,1496545377.2583220005, -0.6343, -0.8711,  0.3467, -5.8594, -2.0752, 13.4430
1496545377.2583980560,1496545377.2608098984, -0.6343, -0.8711,  0.3467, -5.8594, -2.0752, 13.4430
1496545377.2608840466,1496545377.2632970810, -0.6343, -0.8711,  0.3467, -5.8594, -2.0752, 13.4430
1496545377.2633709908,1496545377.2657740116, -0.6343, -0.8711,  0.3467,  0.4578, -0.3967, 17.6544
1496545377.2658479214,1496545377.2682580948, -0.6292, -0.8254,  0.3337,  0.4578, -0.3967, 17.6544
1496545377.2683310509,1496545377.2707500458, -0.6292, -0.8254,  0.3337,  0.4578, -0.3967, 17.6544
1496545377.2708249092,1496545377.2732310295, -0.6292, -0.8254,  0.3337,  0.4578, -0.3967, 17.6544
1496545377.2733058929,1496545377.2757151127, -0.6292, -0.8254,  0.3337,  0.4578,  0.5493, 20.8282
1496545377.2757880688,1496545377.2781939507, -0.6292, -0.8254,  0.3337,  6.3934,  0.5493, 20.8282
1496545377.2782669067,1496545377.2812619209, -0.6292, -0.8254,  0.3337,  6.3934,  0.5493, 20.8282
1496545377.2813370228,1496545377.2836179733, -0.6292, -0.8254,  0.3337,  6.3934,  0.5493, 20.8282
1496545377.2836909294,1496545377.2859709263, -0.6292, -0.8254,  0.3337,  6.3934,  0.5493, 21.3318
1496545377.2860450745,1496545377.2883260250, -0.5786, -0.7632,  0.2649,  7.8735,  0.9613, 21.3318
1496545377.2884008884,1496545377.2907249928, -0.5786, -0.7632,  0.2649,  7.8735,  0.9613, 21.3318
1496545377.2907989025,1496545377.2935709953, -0.5786, -0.7632,  0.2649,  7.8735,  0.9613, 21.3318
1496545377.2936460972,1496545377.2959339619, -0.5786, -0.7632,  0.2649,  7.8735,  0.9613, 21.3318
1496545377.2960090637,1496545377.2982931137, -0.5786, -0.7632,  0.2649,  6.9122,  1.9073, 20.2484
1496545377.2983660698,1496545377.3007020950, -0.5786, -0.7632,  0.2649,  6.9122,  1.9073, 20.2484
1496545377.3007750511,1496545377.3031671047, -0.5786, -0.7632,  0.2649,  6.9122,  1.9073, 20.2484
1496545377.3032400608,1496545377.3056321144, -0.5786, -0.7632,  0.2649,  6.9122,  1.9073, 20.2484
1496545377.3057060242,1496545377.3081049919, -0.5718, -0.7144,  0.1335,  3.9978,  5.0659, 19.2261
1496545377.3081789017,1496545377.3105669022, -0.5718, -0.7144,  0.1335,  3.9978,  5.0659, 19.2261
1496545377.3106400967,1496545377.3131120205, -0.5718, -0.7144,  0.1335,  3.9978,  5.0659, 19.2261
1496545377.3131859303,1496545377.3155469894, -0.5718, -0.7144,  0.1335,  3.9978,  5.0659, 19.2261
1496545377.3156189919,1496545377.3179819584, -0.5718, -0.7144,  0.1335,  3.9978,  7.6904, 16.7389
1496545377.3180549145,1496545377.3204250336, -0.5718, -0.7144,  0.1335, -2.2583,  7.6904, 16.7389
1496545377.3204989433,1496545377.3230888844, -0.5718, -0.7144,  0.1335, -2.2583,  7.6904, 16.7389
1496545377.3231709003,1496545377.3256120682, -0.5718, -0.7144,  0.1335, -2.2583,  7.6904, 16.7389
1496545377.3256890774,1496545377.3280971050, -0.6204, -0.7983,  0.1086, -2.2583,  7.6904, 13.2294
1496545377.3281719685,1496545377.3305819035, -0.6204, -0.7983,  0.1086, -6.6986,  9.8114, 13.2294
1496545377.3307099342,1496545377.3329939842, -0.6204, -0.7983,  0.1086, -6.6986,  9.8114, 13.2294
1496545377.3330678940,1496545377.3353469372, -0.6204, -0.7983,  0.1086, -6.6986,  9.8114, 13.2294
1496545377.3354210854,1496545377.3377020359, -0.6204, -0.7983,  0.1086, -6.6986,  9.8114, 13.2294
1496545377.3378939629,1496545377.3403799534, -0.6204, -0.7983,  0.1086, -4.7150, 10.7269,  9.0942
1496545377.3404579163,1496545377.3434998989, -0.6204, -0.7983,  0.1086, -4.7150, 10.7269,  9.0942
1496545377.3435769081,1496545377.3459889889, -0.6204, -0.7983,  0.1086, -4.7150, 10.7269,  9.0942
1496545377.3460640907,1496545377.3484659195, -0.7109, -0.7996,  0.1667, -4.7150, 10.7269,  9.0942
1496545377.3485410213,1496545377.3509609699, -0.7109, -0.7996,  0.1667, -0.9766,  9.0179,  5.4932
1496545377.3510329723,1496545377.3534429073, -0.7109, -0.7996,  0.1667, -0.9766,  9.0179,  5.4932
1496545377.3535139561,1496545377.3559200764, -0.7109, -0.7996,  0.1667, -0.9766,  9.0179,  5.4932
1496545377.3559920788,1496545377.3583970070, -0.7109, -0.7996,  0.1667, -0.9766,  9.0179,  5.4932
1496545377.3584690094,1496545377.3609220982, -0.7109, -0.7996,  0.1667,  1.9836,  7.6447,  2.8076
1496545377.3609919548,1496545377.3634049892, -0.7109, -0.7996,  0.1667,  1.9836,  7.6447,  2.8076
1496545377.3634760380,1496545377.3658840656, -0.7109, -0.7996,  0.1667,  1.9836,  7.6447,  2.8076
1496545377.3659539223,1496545377.3683609962, -0.7183, -0.8091,  0.1956,  1.9836,  7.6447,  2.8076
1496545377.3684310913,1496545377.3708789349, -0.7183, -0.8091,  0.1956,  1.9836,  6.5155,  0.1373
1496545377.3709499836,1496545377.3732330799, -0.7183, -0.8091,  0.1956,  3.1586,  6.5155,  0.1373
1496545377.3733029366,1496545377.3755879402, -0.7183, -0.8091,  0.1956,  3.1586,  6.5155,  0.1373
1496545377.3756589890,1496545377.3782300949, -0.7183, -0.8091,  0.1956,  3.1586,  6.5155,  0.1373
1496545377.3783020973,1496545377.3805909157, -0.7183, -0.8091,  0.1956,  3.1586,  6.5155,  0.1373
1496545377.3807199001,1496545377.3831369877, -0.7183, -0.8091,  0.1956,  6.2561,  5.0964, -1.6937
1496545377.3832080364,1496545377.3856151104, -0.7183, -0.8091,  0.1956,  6.2561,  5.0964, -1.6937
1496545377.3856859207,1496545377.3880939484, -0.7183, -0.7295,  0.1875,  6.2561,  5.0964, -1.6937
1496545377.3881640434,1496545377.3905749321, -0.7200, -0.7295,  0.1875,  6.2561,  5.0964, -1.6937
1496545377.3906450272,1496545377.3930940628, -0.7200, -0.7295,  0.1875, 10.0250,  0.4425, -4.5319
1496545377.3931689262,1496545377.3955750465, -0.7200, -0.7295,  0.1875, 10.0250,  0.4425, -4.5319
1496545377.3956499100,1496545377.3980638981, -0.7200, -0.7295,  0.1875, 10.0250,  0.4425, -4.5319
1496545377.3981389999,1496545377.4005479813, -0.7200, -0.7295,  0.1875, 10.0250,  0.4425, -4.5319
1496545377.4006218910,1496545377.4030339718, -0.7200, -0.7295,  0.1875,  8.6975, -1.5717, -5.9509
1496545377.4031059742,1496545377.4055120945, -0.7200, -0.7295,  0.1875,  8.6975, -1.5717, -5.9509
1496545377.4055829048,1496545377.4079880714, -0.7200, -0.7747,  0.2073,  8.6975, -1.5717, -5.9509
1496545377.4080588818,1496545377.4104690552, -0.7444, -0.7747,  0.2073,  8.6975, -1.5717, -5.9509
1496545377.4105410576,1496545377.4128448963, -0.7444, -0.7747,  0.2073,  8.6975,  2.3346, -6.1035
1496545377.4129159451,1496545377.4151990414, -0.7444, -0.7747,  0.2073,  9.8572,  3.0365, -6.1035
1496545377.4152688980,1496545377.4175570011, -0.7444, -0.7747,  0.2073,  9.8572,  3.0365, -6.1035
1496545377.4176290035,1496545377.4199140072, -0.7444, -0.7747,  0.2073,  9.8572,  3.0365, -6.1035
1496545377.4199850559,1496545377.4223771095, -0.7444, -0.7747,  0.2073,  9.8572,  3.0365, -6.1035
1496545377.4224491119,1496545377.4247310162, -0.7444, -0.7747,  0.2073,  9.6741,  1.9836, -8.7585
1496545377.4248020649,1496545377.4270889759, -0.7444, -0.7747,  0.1448,  9.6741,  1.9836, -8.7585
1496545377.4271600246,1496545377.4294478893, -0.7915, -0.7573,  0.1619,  9.6741,  1.9836, -8.7585
1496545377.4295179844,1496545377.4320371151, -0.7915, -0.7573,  0.1619,  9.6741,  1.9836, -8.7585
1496545377.4321091175,1496545377.4345169067, -0.7915, -0.7573,  0.1619,  5.7678, -1.7242, -9.4910
1496545377.4345879555,1496545377.4369950294, -0.7915, -0.7573,  0.1619,  6.9275, -1.7242, -9.4910
1496545377.4370648861,1496545377.4394700527, -0.7915, -0.7573,  0.1619,  6.9275, -1.7242, -9.4910
1496545377.4395411015,1496545377.4419651031, -0.7915, -0.7573,  0.1619,  6.9275, -1.7242, -9.4910
1496545377.4421470165,1496545377.4445559978, -0.7915, -0.7573,  0.1619,  6.9275, -1.7242,-11.6119
1496545377.4446289539,1496545377.4470379353, -0.7915, -0.7573,  0.1619,  8.2855, -4.0741,-11.6119
1496545377.4471120834,1496545377.4495160580, -0.7219, -0.7607,  0.2090,  8.2855, -4.0741,-11.6119
1496545377.4495899677,1496545377.4520070553, -0.7219, -0.7607,  0.2090,  8.2855, -4.0741,-11.6119
1496545377.4520819187,1496545377.4544889927, -0.7219, -0.7607,  0.2090,  8.2855, -4.0741,-11.6119
1496545377.4545629025,1496545377.4569730759, -0.7219, -0.7607,  0.2090,  9.0179, -6.2103,-12.8632
1496545377.4570469856,1496545377.4594550133, -0.7219, -0.7607,  0.2090,  9.0179, -6.2103,-12.8632
1496545377.4595289230,1496545377.4618849754, -0.7219, -0.7607,  0.2090,  9.0179, -6.2103,-12.8632
1496545377.4619588852,1496545377.4642450809, -0.7219, -0.7607,  0.2090,  9.0179, -6.2103,-12.8632
1496545377.4643180370,1496545377.4667410851, -0.7219, -0.7607,  0.2090,  8.8654, -7.7057,-13.8702
1496545377.4668169022,1496545377.4691040516, -0.7087, -0.7712,  0.2529,  8.8654, -7.7057,-13.8702
1496545377.4691789150,1496545377.4716649055, -0.7087, -0.7712,  0.2529,  8.8654, -7.7057,-13.8702
1496545377.4717400074,1496545377.4741039276, -0.7087, -0.7712,  0.2529,  8.8654, -7.7057,-13.8702
1496545377.4741780758,1496545377.4773221016, -0.7087, -0.7712,  0.2529,  8.8654, -9.8114,-15.0757
1496545377.4774000645,1496545377.4798040390, -0.7087, -0.7712,  0.2529, 10.3912, -9.8114,-15.0757
1496545377.4798810482,1496545377.4822950363, -0.7087, -0.7712,  0.2529, 10.3912, -9.8114,-15.0757
1496545377.4823720455,1496545377.4847741127, -0.7087, -0.7712,  0.2529, 10.3912, -9.8114,-15.0757
1496545377.4848489761,1496545377.4872500896, -0.7087, -0.7712,  0.2529, 14.2975,-13.2294,-15.0757
1496545377.4873280525,1496545377.4897320271, -0.6855, -0.8027,  0.2751, 12.9242,-13.2294,-15.0757
1496545377.4898099899,1496545377.4922161102, -0.6855, -0.8027,  0.2751, 12.9242,-13.2294,-15.0757
1496545377.4922940731,1496545377.4946990013, -0.6855, -0.8027,  0.2751, 12.9242,-13.2294,-15.0757
1496545377.4947769642,1496545377.4971799850, -0.6855, -0.8027,  0.2751, 12.9242,-13.2294,-14.0228
1496545377.4972569942,1496545377.4996540546, -0.6855, -0.8027,  0.2751, 17.8680,-15.6097,-14.0228
1496545377.4997310638,1496545377.5021491051, -0.6855, -0.8027,  0.2751, 17.8680,-15.6097,-14.0228
1496545377.5022270679,1496545377.5046300888, -0.6855, -0.8027,  0.2751, 17.8680,-15.6097,-14.0228
1496545377.5047070980,1496545377.5072770119, -0.6855, -0.8027,  0.2751, 17.8680,-15.6097,-14.0228
1496545377.5073649883,1496545377.5099799633, -0.6533, -0.7983,  0.2742, 23.3612,-16.3269,-12.9089
1496545377.5100610256,1496545377.5124111176, -0.6533, -0.7983,  0.2742, 23.3612,-16.3269,-12.9089
1496545377.5124900341,1496545377.5147719383, -0.6533, -0.7983,  0.2742, 23.3612,-16.3269,-12.9089
1496545377.5148499012,1496545377.5171298981, -0.6533, -0.7983,  0.2742, 23.3612,-16.3269,-12.9089
1496545377.5172090530,1496545377.5194909573, -0.6533, -0.7983,  0.2742, 25.9094,-16.0828,-11.9476
1496545377.5195689201,1496545377.5219469070, -0.6533, -0.7983,  0.2742, 25.9094,-16.0828,-11.9476
1496545377.5220239162,1496545377.5244309902, -0.6533, -0.7983,  0.2742, 25.9094,-16.0828,-11.9476
1496545377.5245089531,1496545377.5269229412, -0.6533, -0.7983,  0.2742, 25.9094,-16.0828,-11.9476
1496545377.5270009041,1496545377.5294079781, -0.6475, -0.7896,  0.2825, 25.9094,-16.0828,-10.4370
1496545377.5294868946,1496545377.5319080353, -0.6475, -0.7896,  0.2825, 25.9399,-16.0828,-10.4370
1496545377.5319869518,1496545377.5343899727, -0.6475, -0.7896,  0.2825, 25.9399,-16.0828,-10.4370
1496545377.5344688892,1496545377.5368709564, -0.6475, -0.7896,  0.2825, 25.9399,-16.0828,-10.4370
1496545377.5369501114,1496545377.5393519402, -0.6475, -0.7896,  0.2825, 25.9399,-16.0828,-10.4370
1496545377.5394310951,1496545377.5418250561, -0.6475, -0.7896,  0.2825, 26.3367,-15.2893, -9.1705
1496545377.5419030190,1496545377.5441820621, -0.6475, -0.7896,  0.2825, 26.3367,-15.2893, -9.1705
1496545377.5442590714,1496545377.5465428829, -0.6475, -0.7896,  0.2825, 26.3367,-15.2893, -9.1705
1496545377.5467309952,1496545377.5490200520, -0.6545, -0.7773,  0.2783, 26.3367,-15.2893, -9.1705
1496545377.5490970612,1496545377.5514268875, -0.6545, -0.7773,  0.2783, 26.9928,-13.5956, -7.7362
1496545377.5515029430,1496545377.5537869930, -0.6545, -0.7773,  0.2783, 26.9928,-13.5956, -7.7362
1496545377.5538630486,1496545377.5561449528, -0.6545, -0.7773,  0.2783, 26.9928,-13.5956, -7.7362
1496545377.5562210083,1496545377.5585050583, -0.6545, -0.7773,  0.2783, 26.9928,-13.5956, -7.7362
1496545377.5585811138,1496545377.5610051155, -0.6545, -0.7773,  0.2783, 26.9928, -9.6893, -6.2714
1496545377.5610790253,1496545377.5633609295, -0.6545, -0.7773,  0.2783, 23.6816,-11.2457, -6.2714
1496545377.5636088848,1496545377.5659039021, -0.6545, -0.7773,  0.2783, 23.6816,-11.2457, -6.2714
1496545377.5659799576,1496545377.5682599545, -0.6545, -0.7866,  0.1982, 23.6816,-11.2457, -6.2714
1496545377.5683360100,1496545377.5706140995, -0.6431, -0.7866,  0.1982, 23.6816,-11.2457, -6.2714
1496545377.5708920956,1496545377.5732660294, -0.6431, -0.7866,  0.1982, 16.6016, -8.3466, -5.6000
1496545377.5733420849,1496545377.5757050514, -0.6431, -0.7866,  0.1982, 16.6016, -8.3466, -5.6000
1496545377.5757789612,1496545377.5783150196, -0.6431, -0.7866,  0.1982, 16.6016, -8.3466, -5.6000
1496545377.5783910751,1496545377.5808010101, -0.6431, -0.7866,  0.1982, 16.6016, -8.3466, -5.6000
1496545377.5808770657,1496545377.5832800865, -0.6431, -0.7866,  0.1982, 10.4523, -4.5013, -5.3253
1496545377.5833539963,1496545377.5857660770, -0.6431, -0.7866,  0.1982, 10.4523, -4.5013, -5.3253
1496545377.5858390331,1496545377.5882470608, -0.6431, -0.8184,  0.2031, 10.4523, -4.5013, -5.3253
1496545377.5883200169,1496545377.5907390118, -0.6448, -0.8184,  0.2031, 10.4523, -4.5013, -5.3253
1496545377.5908129215,1496545377.5932240486, -0.6448, -0.8184,  0.2031,  5.1270, -0.2899, -4.7302
1496545377.5932950974,1496545377.5956959724, -0.6448, -0.8184,  0.2031,  5.1270, -0.2899, -4.7302
1496545377.5957660675,1496545377.5981779099, -0.6448, -0.8184,  0.2031,  5.1270, -0.2899, -4.7302
1496545377.5982489586,1496545377.6006960869, -0.6448, -0.8184,  0.2031,  5.1270, -0.2899, -4.7302
1496545377.6007680893,1496545377.6030519009, -0.6448, -0.8184,  0.2031,  5.1270, -0.2899, -4.5319
1496545377.6031219959,1496545377.6054060459, -0.6448, -0.8184,  0.2031,  1.7548,  2.6550, -4.5319
1496545377.6054749489,1496545377.6077549458, -0.6448, -0.7559,  0.2864,  1.7548,  2.6550, -4.5319
1496545377.6078250408,1496545377.6101028919, -0.6616, -0.7932,  0.2864,  1.7548,  2.6550, -4.5319
1496545377.6101720333,1496545377.6124610901, -0.6616, -0.7932,  0.2864,  1.7548,  2.6550, -4.5319
1496545377.6125319004,1496545377.6148159504, -0.6616, -0.7932,  0.2864,  0.0458,  3.7537, -3.9520
1496545377.6148869991,1496545377.6171729565, -0.6616, -0.7932,  0.2864,  0.0458,  3.7537, -3.9520
1496545377.6172430515,1496545377.6195280552, -0.6616, -0.7932,  0.2864,  0.0458,  3.7537, -3.9520
1496545377.6195991039,1496545377.6220510006, -0.6616, -0.7932,  0.2864,  0.0458,  3.7537, -3.9520
1496545377.6221220493,1496545377.6244111061, -0.6616, -0.7932,  0.2864,  0.0458,  7.6599, -2.5330
1496545377.6244819164,1496545377.6267619133, -0.6616, -0.7932,  0.2864, -0.7935,  4.4250, -2.5330
1496545377.6268320084,1496545377.6291170120, -0.6516, -0.7654,  0.3540, -0.7935,  4.4250, -2.5330
1496545377.6291880608,1496545377.6316559315, -0.6516, -0.7654,  0.3540, -0.7935,  4.4250, -2.5330
1496545377.6317288876,1496545377.6341350079, -0.6516, -0.7654,  0.3540, -0.7935,  4.4250, -2.5330
1496545377.6342070103,1496545377.6366159916, -0.6516, -0.7654,  0.3540,  0.3052,  4.6844, -1.9073
1496545377.6366870403,1496545377.6390960217, -0.6516, -0.7654,  0.3540,  0.3052,  4.6844, -1.9073
1496545377.6391670704,1496545377.6415810585, -0.6516, -0.7654,  0.3540,  0.3052,  4.6844, -1.9073
1496545377.6416521072,1496545377.6440610886, -0.6516, -0.7654,  0.3540,  0.3052,  4.6844, -1.9073
1496545377.6441318989,1496545377.6465380192, -0.6516, -0.7654,  0.3540,  1.0529,  4.6387, -1.8616
1496545377.6467111111,1496545377.6491200924, -0.6357, -0.7446,  0.3250,  1.0529,  4.6387, -1.8616
1496545377.6491909027,1496545377.6516509056, -0.6357, -0.7446,  0.3250,  1.0529,  4.6387, -1.8616
1496545377.6517219543,1496545377.6540040970, -0.6357, -0.7446,  0.3250,  1.0529,  4.6387, -1.8616
1496545377.6540739536,1496545377.6563570499, -0.6357, -0.7446,  0.3250,  1.0529,  4.5166, -1.6479
1496545377.6564259529,1496545377.6587059498, -0.6357, -0.7446,  0.3250,  0.7629,  4.5166, -1.6479
1496545377.6587769985,1496545377.6612479687, -0.6357, -0.7446,  0.3250,  0.7629,  4.5166, -1.6479
1496545377.6613171101,1496545377.6636819839, -0.6357, -0.7446,  0.3250,  0.7629,  4.5166, -1.6479
1496545377.6637520790,1496545377.6661128998, -0.6357, -0.7446,  0.3250,  0.7629,  4.5166, -1.6479
1496545377.6661829948,1496545377.6688590050, -0.6187, -0.7488,  0.2671, -1.4954,  4.2267, -1.8311
1496545377.6689319611,1496545377.6713531017, -0.6187, -0.7488,  0.2671, -1.4954,  4.2267, -1.8311
1496545377.6714239120,1496545377.6738269329, -0.6187, -0.7488,  0.2671, -1.4954,  4.2267, -1.8311
1496545377.6738970280,1496545377.6763060093, -0.6187, -0.7488,  0.2671, -1.4954,  4.2267, -1.8311
1496545377.6763770580,1496545377.6787850857, -0.6187, -0.7488,  0.2671, -3.9368,  5.0049, -3.0975
1496545377.6788558960,1496545377.6813039780, -0.6187, -0.7488,  0.2671, -3.9368,  5.0049, -3.0975
1496545377.6813740730,1496545377.6837830544, -0.6187, -0.7488,  0.2671, -3.9368,  5.0049, -3.0975
1496545377.6838529110,1496545377.6862640381, -0.6187, -0.7488,  0.2671, -3.9368,  5.0049, -3.0975
1496545377.6863338947,1496545377.6887350082, -0.6389, -0.7544,  0.2798, -5.0507,  5.4474, -3.9520
1496545377.6888051033,1496545377.6912159920, -0.6389, -0.7544,  0.2798, -5.0507,  5.4474, -3.9520
1496545377.6912870407,1496545377.6936929226, -0.6389, -0.7544,  0.2798, -5.0507,  5.4474, -3.9520
1496545377.6937639713,1496545377.6961700916, -0.6389, -0.7544,  0.2798, -5.0507,  5.4474, -3.9520
1496545377.6962389946,1496545377.6986451149, -0.6389, -0.7544,  0.2798, -5.0507,  5.2643, -4.4861
1496545377.6987149715,1496545377.7011129856, -0.6389, -0.7544,  0.2798, -5.3558,  5.2643, -4.4861
1496545377.7011840343,1496545377.7034640312, -0.6389, -0.7544,  0.2798, -5.3558,  5.2643, -4.4861
1496545377.7035329342,1496545377.7058110237, -0.6389, -0.7544,  0.2798, -5.3558,  5.2643, -4.4861
1496545377.7058811188,1496545377.7081658840, -0.6389, -0.7549,  0.3123, -5.3558,  5.2643, -4.4861
1496545377.7082350254,1496545377.7105178833, -0.6611, -0.7549,  0.3123, -4.0894,  4.7760, -4.9744
1496545377.7105879784,1496545377.7129440308, -0.6611, -0.7549,  0.3123, -4.0894,  4.7760, -4.9744
1496545377.7130150795,1496545377.7153019905, -0.6611, -0.7549,  0.3123, -4.0894,  4.7760, -4.9744
1496545377.7153720856,1496545377.7176558971, -0.6611, -0.7549,  0.3123, -4.0894,  4.7760, -4.9744
1496545377.7177250385,1496545377.7200050354, -0.6611, -0.7549,  0.3123, -2.7924,  3.7384, -5.3406
1496545377.7200748920,1496545377.7226119041, -0.6611, -0.7549,  0.3123, -2.7924,  3.7384, -5.3406
1496545377.7226829529,1496545377.7250900269, -0.6611, -0.7549,  0.3123, -2.7924,  3.7384, -5.3406
1496545377.7251610756,1496545377.7275679111, -0.6611, -0.7549,  0.3748, -2.7924,  3.7384, -5.3406
1496545377.7276370525,1496545377.7300479412, -0.6711, -0.7542,  0.3398, -2.7924,  3.7384, -5.7678
1496545377.7301180363,1496545377.7325370312, -0.6711, -0.7542,  0.3398, -0.5493,  2.6245, -5.7678
1496545377.7326068878,1496545377.7350149155, -0.6711, -0.7542,  0.3398, -0.5493,  2.6245, -5.7678
1496545377.7350850105,1496545377.7374920845, -0.6711, -0.7542,  0.3398, -0.5493,  2.6245, -5.7678
1496545377.7375609875,1496545377.7399699688, -0.6711, -0.7542,  0.3398, -0.5493,  2.6245, -5.7678
1496545377.7400410175,1496545377.7424869537, -0.6711, -0.7542,  0.3398,  1.1597,  1.3123, -5.8594
1496545377.7425570488,1496545377.7449619770, -0.6711, -0.7542,  0.3398,  1.1597,  1.3123, -5.8594
1496545377.7450330257,1496545377.7474339008, -0.6711, -0.7542,  0.3398,  1.1597,  1.3123, -5.8594
1496545377.7475039959,1496545377.7499110699, -0.6611, -0.7661,  0.3003,  1.1597,  1.3123, -5.8594
1496545377.7500920296,1496545377.7524230480, -0.6611, -0.7661,  0.3003,  1.7853,  0.8392, -5.5695
1496545377.7524940968,1496545377.7547810078, -0.6611, -0.7661,  0.3003,  1.7853,  0.8392, -5.5695
1496545377.7548520565,1496545377.7571349144, -0.6611, -0.7661,  0.3003,  1.7853,  0.8392, -5.5695
1496545377.7572050095,1496545377.7594881058, -0.6611, -0.7661,  0.3003,  1.7853,  0.8392, -5.5695
1496545377.7595579624,1496545377.7619440556, -0.6611, -0.7661,  0.3003,  1.7853, -0.8087, -4.9896
1496545377.7620151043,1496545377.7644200325, -0.6611, -0.7661,  0.3003,  5.3864, -0.8087, -4.9896
1496545377.7644898891,1496545377.7668969631, -0.6611, -0.7661,  0.3003,  5.3864, -0.8087, -4.9896
1496545377.7669680119,1496545377.7693710327, -0.6899, -0.7944,  0.2434,  5.3864, -0.8087, -4.9896
1496545377.7694420815,1496545377.7718930244, -0.6899, -0.7944,  0.2434,  5.3864, -0.8087, -4.9896
1496545377.7719628811,1496545377.7743721008, -0.6899, -0.7944,  0.2434,  7.9346, -1.6174, -5.1422
1496545377.7744410038,1496545377.7768750191, -0.6899, -0.7944,  0.2434,  7.9346, -1.6174, -5.1422
1496545377.7769451141,1496545377.7793929577, -0.6899, -0.7944,  0.2434,  7.9346, -1.6174, -5.1422
1496545377.7794630527,1496545377.7819049358, -0.6899, -0.7944,  0.2434,  7.9346, -1.6174, -5.1422
1496545377.7819740772,1496545377.7843830585, -0.6899, -0.7944,  0.2434,  9.5825, -2.8687, -5.8746
1496545377.7844519615,1496545377.7868599892, -0.6899, -0.7944,  0.2434,  9.5825, -2.8687, -5.8746
1496545377.7869300842,1496545377.7893350124, -0.6929, -0.8110,  0.2864,  9.5825, -2.8687, -5.8746
1496545377.7894051075,1496545377.7918159962, -0.6929, -0.8110,  0.2864,  9.5825, -2.8687, -5.8746
1496545377.7918870449,1496545377.7942929268, -0.6929, -0.8110,  0.2864, 12.8479, -3.7537, -5.6305
1496545377.7943670750,1496545377.7967700958, -0.6929, -0.8110,  0.2864, 12.8479, -3.7537, -5.6305
1496545377.7968449593,1496545377.7992579937, -0.6929, -0.8110,  0.2864, 12.8479, -3.7537, -5.6305
1496545377.7993319035,1496545377.8017039299, -0.6929, -0.8110,  0.2864, 12.8479, -3.7537, -5.6305
1496545377.8017790318,1496545377.8040618896, -0.6929, -0.8110,  0.2864, 12.8479, -7.6599, -4.8828
1496545377.8041350842,1496545377.8064150810, -0.6929, -0.8110,  0.2864, 18.0969, -4.4098, -4.8828
1496545377.8064899445,1496545377.8087708950, -0.7217, -0.7839,  0.3806, 18.0969, -4.4098, -4.8828
1496545377.8088450432,1496545377.8111441135, -0.7217, -0.7839,  0.3806, 18.0969, -4.4098, -4.8828
1496545377.8112180233,1496545377.8135080338, -0.7217, -0.7839,  0.3806, 18.0969, -4.4098, -4.8828
1496545377.8135819435,1496545377.8158650398, -0.7217, -0.7839,  0.3806, 23.7732, -6.6833, -2.6550
1496545377.8159370422,1496545377.8182210922, -0.7217, -0.7839,  0.3806, 23.7732, -6.6833, -2.6550
1496545377.8182940483,1496545377.8205759525, -0.7217, -0.7839,  0.3806, 23.7732, -6.6833, -2.6550
1496545377.8206489086,1496545377.8230841160, -0.7217, -0.7839,  0.3806, 23.7732, -6.6833, -2.6550
1496545377.8231580257,1496545377.8254458904, -0.7217, -0.7839,  0.3806, 27.6794, -9.8724, -0.3357
1496545377.8255209923,1496545377.8278040886, -0.7217, -0.7839,  0.4207, 30.1361, -9.8724, -0.3357
1496545377.8278799057,1496545377.8301649094, -0.7063, -0.7537,  0.4207, 30.1361, -9.8724, -0.3357
1496545377.8302400112,1496545377.8326609135, -0.7063, -0.7537,  0.4207, 30.1361, -9.8724, -0.3357
1496545377.8327369690,1496545377.8351459503, -0.7063, -0.7537,  0.4207, 30.1361, -9.8724, -0.3357
1496545377.8352210522,1496545377.8376278877, -0.7063, -0.7537,  0.4207, 37.2620,-11.7950,  0.6561
1496545377.8377060890,1496545377.8401091099, -0.7063, -0.7537,  0.4207, 37.2620,-11.7950,  0.6561
1496545377.8401849270,1496545377.8426010609, -0.7063, -0.7537,  0.4207, 37.2620,-11.7950,  0.6561
1496545377.8426790237,1496545377.8450949192, -0.7063, -0.7537,  0.4207, 37.2620,-11.7950,  0.6561
1496545377.8451719284,1496545377.8475840092, -0.7063, -0.7537,  0.4207, 44.5099,-14.9231,  2.8992
1496545377.8476610184,1496545377.8500690460, -0.7166, -0.6855,  0.4255, 44.5099,-14.9231,  2.8992
1496545377.8501451015,1496545377.8524830341, -0.7166, -0.6855,  0.4255, 44.5099,-14.9231,  2.8992
1496545377.8526699543,1496545377.8549580574, -0.7166, -0.6855,  0.4255, 44.5099,-14.9231,  2.8992
1496545377.8550341129,1496545377.8573160172, -0.7166, -0.6855,  0.4255, 46.9971,-17.2577,  5.0201
1496545377.8573920727,1496545377.8596808910, -0.7166, -0.6855,  0.4255, 46.9971,-17.2577,  5.0201
1496545377.8597569466,1496545377.8621420860, -0.7166, -0.6855,  0.4255, 46.9971,-17.2577,  5.0201
1496545377.8622179031,1496545377.8646240234, -0.7166, -0.6855,  0.4255, 46.9971,-17.2577,  5.0201
1496545377.8647010326,1496545377.8671040535, -0.7166, -0.6855,  0.4255, 46.9971,-17.2577,  6.5460
1496545377.8671810627,1496545377.8695919514, -0.7024, -0.7039,  0.4363, 47.9736,-19.6228,  6.5460
1496545377.8696689606,1496545377.8720929623, -0.7024, -0.7039,  0.4363, 47.9736,-19.6228,  6.5460
1496545377.8721690178,1496545377.8745799065, -0.7024, -0.7039,  0.4363, 47.9736,-19.6228,  6.5460
1496545377.8746569157,1496545377.8770639896, -0.7024, -0.7039,  0.4363, 47.9736,-19.6228,  6.5460
1496545377.8771400452,1496545377.8795540333, -0.7024, -0.7039,  0.4363, 49.4232,-21.6675,  7.7362
1496545377.8796300888,1496545377.8820350170, -0.7024, -0.7039,  0.4363, 49.4232,-21.6675,  7.7362
1496545377.8821110725,1496545377.8845219612, -0.7024, -0.7039,  0.4363, 49.4232,-21.6675,  7.7362
1496545377.8845989704,1496545377.8870038986, -0.7024, -0.7039,  0.4363, 49.4232,-21.6675,  7.7362
1496545377.8870809078,1496545377.8894839287, -0.7087, -0.6941,  0.4343, 46.0052,-23.6664, 10.3607
1496545377.8895618916,1496545377.8919880390, -0.7087, -0.6941,  0.4343, 46.0052,-23.6664, 10.3607
1496545377.8920669556,1496545377.8944730759, -0.7087, -0.6941,  0.4343, 46.0052,-23.6664, 10.3607
1496545377.8945519924,1496545377.8969619274, -0.7087, -0.6941,  0.4343, 46.0052,-23.6664, 10.3607
1496545377.8970398903,1496545377.8994460106, -0.7087, -0.6941,  0.4343, 49.9115,-24.8413, 12.1613
1496545377.8995249271,1496545377.9018840790, -0.7087, -0.6941,  0.4343, 47.0581,-24.8413, 12.1613
1496545377.9019639492,1496545377.9042499065, -0.7087, -0.6941,  0.4343, 47.0581,-24.8413, 12.1613
1496545377.9043290615,1496545377.9066100121, -0.7087, -0.6941,  0.4343, 47.0581,-24.8413, 12.1613
1496545377.9066889286,1496545377.9089760780, -0.6848, -0.6567,  0.3945, 47.0581,-24.8413, 12.1613
1496545377.9090540409,1496545377.9113919735, -0.6848, -0.6567,  0.3945, 43.2129,-25.4211, 12.6343
1496545377.9114708900,1496545377.9138789177, -0.6848, -0.6567,  0.3945, 43.2129,-25.4211, 12.6343
1496545377.9139580727,1496545377.9163711071, -0.6848, -0.6567,  0.3945, 43.2129,-25.4211, 12.6343
1496545377.9164490700,1496545377.9188570976, -0.6848, -0.6567,  0.3945, 43.2129,-25.4211, 12.6343
1496545377.9189350605,1496545377.9213519096, -0.6848, -0.6567,  0.3945, 35.6598,-26.5350, 15.0452
1496545377.9214301109,1496545377.9238419533, -0.6848, -0.6567,  0.3945, 35.6598,-26.5350, 15.0452
1496545377.9239211082,1496545377.9263200760, -0.6848, -0.6567,  0.3945, 35.6598,-26.5350, 15.0452
1496545377.9263980389,1496545377.9288060665, -0.6848, -0.6467,  0.4690, 35.6598,-26.5350, 15.0452
1496545377.9288849831,1496545377.9313099384, -0.6631, -0.6467,  0.4690, 31.7535,-25.9857, 16.2659
1496545377.9313879013,1496545377.9337949753, -0.6631, -0.6467,  0.4690, 32.7301,-25.9857, 16.2659
1496545377.9338729382,1496545377.9362869263, -0.6631, -0.6467,  0.4690, 32.7301,-25.9857, 16.2659
1496545377.9363648891,1496545377.9387679100, -0.6631, -0.6467,  0.4690, 32.7301,-25.9857, 16.2659
1496545377.9388470650,1496545377.9412961006, -0.6631, -0.6467,  0.4690, 32.7301,-25.9857, 16.6779
1496545377.9413750172,1496545377.9437839985, -0.6631, -0.6467,  0.4690, 32.0435,-24.0784, 16.6779
1496545377.9438641071,1496545377.9462668896, -0.6631, -0.6467,  0.4690, 32.0435,-24.0784, 16.6779
1496545377.9463460445,1496545377.9487531185, -0.6631, -0.5789,  0.4907, 32.0435,-24.0784, 16.6779
1496545377.9488320351,1496545377.9512588978, -0.7422, -0.5789,  0.4907, 32.0435,-24.0784, 16.6779
1496545377.9513380527,1496545377.9536240101, -0.7422, -0.5789,  0.4907, 31.2042,-25.9094, 17.8070
1496545377.9537029266,1496545377.9559888840, -0.7422, -0.5789,  0.4907, 31.2042,-25.9094, 17.8070
1496545377.9561738968,1496545377.9584610462, -0.7422, -0.5789,  0.4907, 31.2042,-25.9094, 17.8070
1496545377.9585399628,1496545377.9608340263, -0.7422, -0.5789,  0.4907, 31.2042,-25.9094, 17.8070
1496545377.9609119892,1496545377.9633269310, -0.7422, -0.5789,  0.4907, 27.2675,-27.1149, 19.5007
1496545377.9634060860,1496545377.9658050537, -0.7422, -0.5789,  0.4907, 27.2675,-27.1149, 19.5007
1496545377.9658839703,1496545377.9682879448, -0.7422, -0.5789,  0.5044, 27.2675,-27.1149, 19.5007
1496545377.9683670998,1496545377.9707889557, -0.7249, -0.5100,  0.5044, 27.2675,-27.1149, 19.5007
1496545377.9708690643,1496545377.9732739925, -0.7249, -0.5100,  0.5044, 27.2675,-27.1149, 19.0125
1496545377.9733541012,1496545377.9757609367, -0.7249, -0.5100,  0.5044, 19.5312,-25.6653, 19.0125
1496545377.9758400917,1496545377.9782469273, -0.7249, -0.5100,  0.5044, 19.5312,-25.6653, 19.0125
1496545377.9783260822,1496545377.9807419777, -0.7249, -0.5100,  0.5044, 19.5312,-25.6653, 19.0125
1496545377.9808208942,1496545377.9832310677, -0.7249, -0.5100,  0.5044, 19.5312,-25.6653, 22.9187
1496545377.9833099842,1496545377.9857180119, -0.7249, -0.5100,  0.5044, 15.4266,-26.0315, 20.5994
1496545377.9857969284,1496545377.9882040024, -0.7249, -0.5100,  0.4485, 15.4266,-26.0315, 20.5994
1496545377.9882819653,1496545377.9907019138, -0.6995, -0.6389,  0.4485, 15.4266,-26.0315, 20.5994
1496545377.9907810688,1496545377.9931890965, -0.6995, -0.6389,  0.4485, 15.4266,-26.0315, 20.5994
1496545377.9932680130,1496545377.9956779480, -0.6995, -0.6389,  0.4485, 16.8762,-25.6348, 20.2179
1496545377.9957559109,1496545377.9981629848, -0.6995, -0.6389,  0.4485, 16.8762,-25.6348, 20.2179
1496545377.9982409477,1496545378.0006899834, -0.6995, -0.6389,  0.4485, 16.8762,-25.6348, 20.2179
1496545378.0007700920,1496545378.0030620098, -0.6995, -0.6389,  0.4485, 16.8762,-25.6348, 20.2179
1496545378.0031399727,1496545378.0054268837, -0.6995, -0.6389,  0.4485,  9.3842,-22.1252, 18.1732
1496545378.0055038929,1496545378.0077900887, -0.6995, -0.6389,  0.4485,  9.3842,-22.1252, 18.1732
1496545378.0078659058,1496545378.0101530552, -0.6875, -0.6470,  0.4363,  9.3842,-22.1252, 18.1732
1496545378.0102310181,1496545378.0126199722, -0.6875, -0.6470,  0.4363,  9.3842,-22.1252, 18.1732
1496545378.0126979351,1496545378.0151069164, -0.6875, -0.6470,  0.4363,  9.3842,-22.1252, 17.4255
1496545378.0151851177,1496545378.0175919533, -0.6875, -0.6470,  0.4363,  2.2736,-20.0500, 17.4255
1496545378.0176689625,1496545378.0200788975, -0.6875, -0.6470,  0.4363,  2.2736,-20.0500, 17.4255
1496545378.0201559067,1496545378.0225739479, -0.6875, -0.6470,  0.4363,  2.2736,-20.0500, 17.4255
1496545378.0226500034,1496545378.0250511169, -0.6875, -0.6470,  0.4363,  2.2736,-20.0500, 17.4255
1496545378.0251269341,1496545378.0275290012, -0.6875, -0.6470,  0.4363, -2.5482,-15.6860, 14.5416
1496545378.0276060104,1496545378.0300180912, -0.6511, -0.6948,  0.4246, -2.5482,-15.6860, 14.5416
1496545378.0300939083,1496545378.0325140953, -0.6511, -0.6948,  0.4246, -2.5482,-15.6860, 14.5416
1496545378.0325899124,1496545378.0349979401, -0.6511, -0.6948,  0.4246, -2.5482,-15.6860, 14.5416
1496545378.0350730419,1496545378.0374829769, -0.6511, -0.6948,  0.4246, -4.0436,-12.8784, 13.3209
1496545378.0375590324,1496545378.0399639606, -0.6511, -0.6948,  0.4246, -4.0436,-12.8784, 13.3209
1496545378.0400400162,1496545378.0425078869, -0.6511, -0.6948,  0.4246, -4.0436,-12.8784, 13.3209
1496545378.0425839424,1496545378.0449879169, -0.6511, -0.6948,  0.4246, -4.0436,-12.8784, 13.3209
1496545378.0450639725,1496545378.0474660397, -0.6511, -0.6948,  0.4246, -7.9498, -9.8572, 12.2528
1496545378.0475409031,1496545378.0499420166, -0.6282, -0.6765,  0.3516, -8.0872, -9.8572, 12.2528
1496545378.0500171185,1496545378.0523369312, -0.6282, -0.6765,  0.3516, -8.0872, -9.8572, 12.2528
1496545378.0524120331,1496545378.0546948910, -0.6282, -0.6765,  0.3516, -8.0872, -9.8572, 12.2528
1496545378.0547690392,1496545378.0570530891, -0.6282, -0.6765,  0.3516, -8.0872, -9.8572, 12.2528
1496545378.0571260452,1496545378.0594038963, -0.6282, -0.6765,  0.3516,-14.2822, -4.7607,  8.7128
1496545378.0595839024,1496545378.0619490147, -0.6282, -0.6765,  0.3516,-14.2822, -4.7607,  8.7128
1496545378.0620241165,1496545378.0644280910, -0.6282, -0.6765,  0.3516,-14.2822, -4.7607,  8.7128
1496545378.0645029545,1496545378.0669090748, -0.6282, -0.6765,  0.3516,-14.2822, -4.7607,  8.7128
1496545378.0669839382,1496545378.0693929195, -0.6331, -0.7405,  0.3677, -6.8359, -4.2877,  8.9722
1496545378.0694630146,1496545378.0719079971, -0.6331, -0.7405,  0.3677, -6.8359, -4.2877,  8.9722
1496545378.0719790459,1496545378.0743930340, -0.6331, -0.7405,  0.3677, -6.8359, -4.2877,  8.9722
1496545378.0744650364,1496545378.0768749714, -0.6331, -0.7405,  0.3677, -6.8359, -4.2877,  8.9722
1496545378.0769460201,1496545378.0793550014, -0.6331, -0.7405,  0.3677, -2.6855, -1.4954,  6.8359
1496545378.0794239044,1496545378.0818390846, -0.6331, -0.7405,  0.3677, -2.6855, -1.4954,  6.8359
1496545378.0819089413,1496545378.0843191147, -0.6331, -0.7405,  0.3677, -2.6855, -1.4954,  6.8359
1496545378.0843889713,1496545378.0867938995, -0.6331, -0.7405,  0.3677, -2.6855, -1.4954,  6.8359
1496545378.0868639946,1496545378.0892739296, -0.6846, -0.6838,  0.3931, -2.6855, -1.4954,  6.3629
1496545378.0893440247,1496545378.0917589664, -0.6846, -0.6838,  0.3931, -0.0458,  0.9003,  6.3629
1496545378.0918319225,1496545378.0942370892, -0.6846, -0.6838,  0.3931, -0.0458,  0.9003,  6.3629
1496545378.0943090916,1496545378.0967121124, -0.6846, -0.6838,  0.3931, -0.0458,  0.9003,  6.3629
1496545378.0967841148,1496545378.0991930962, -0.6846, -0.6838,  0.3931, -0.0458,  0.9003,  6.3629
1496545378.0992639065,1496545378.1016409397, -0.6846, -0.6838,  0.3931, -0.4425,  0.9155,  5.5542
1496545378.1017129421,1496545378.1039960384, -0.6846, -0.6838,  0.3931, -0.4425,  0.9155,  5.5542
1496545378.1040658951,1496545378.1063499451, -0.6846, -0.6838,  0.3931, -0.4425,  0.9155,  5.5542
1496545378.1064200401,1496545378.1087059975, -0.6846, -0.6580,  0.4456, -0.4425,  0.9155,  5.5542
1496545378.1087770462,1496545378.1111209393, -0.6746, -0.6580,  0.4456, -2.0447,  2.3499,  5.4474
1496545378.1111910343,1496545378.1135990620, -0.6746, -0.6580,  0.4456, -2.0447,  2.3499,  5.4474
1496545378.1136701107,1496545378.1160750389, -0.6746, -0.6580,  0.4456, -2.0447,  2.3499,  5.4474
1496545378.1161448956,1496545378.1185479164, -0.6746, -0.6580,  0.4456, -2.0447,  2.3499,  5.4474
1496545378.1186180115,1496545378.1210329533, -0.6746, -0.6580,  0.4456, -2.0447,  2.3499,  6.6986
1496545378.1211040020,1496545378.1235110760, -0.6746, -0.6580,  0.4456, -3.8452,  2.2430,  6.6986
1496545378.1235818863,1496545378.1259899139, -0.6746, -0.6580,  0.4456, -3.8452,  2.2430,  6.6986
1496545378.1260609627,1496545378.1284689903, -0.6746, -0.6580,  0.4551, -3.8452,  2.2430,  6.6986
1496545378.1285390854,1496545378.1309518814, -0.6650, -0.6121,  0.4551, -3.8452,  2.2430,  6.6986
1496545378.1310219765,1496545378.1334369183, -0.6650, -0.6121,  0.4551, -5.8441,  3.2959,  7.2632
1496545378.1335079670,1496545378.1359159946, -0.6650, -0.6121,  0.4551, -5.8441,  3.2959,  7.2632
1496545378.1359860897,1496545378.1383941174, -0.6650, -0.6121,  0.4551, -5.8441,  3.2959,  7.2632
1496545378.1384630203,1496545378.1409189701, -0.6650, -0.6121,  0.4551, -5.8441,  3.2959,  7.2632
1496545378.1409881115,1496545378.1433980465, -0.6650, -0.6121,  0.4551, -7.1259,  3.5553,  7.4463
1496545378.1434679031,1496545378.1458690166, -0.6650, -0.6121,  0.4551, -7.1259,  3.5553,  7.4463
1496545378.1459391117,1496545378.1483459473, -0.6650, -0.6121,  0.4551, -7.1259,  3.5553,  7.4463
1496545378.1484160423,1496545378.1508119106, -0.6472, -0.6592,  0.4541, -7.1259,  3.5553,  7.4463
1496545378.1508820057,1496545378.1531720161, -0.6472, -0.6592,  0.4541, -7.1259,  4.3945,  7.1259
1496545378.1532421112,1496545378.1555221081, -0.6472, -0.6592,  0.4541, -5.8746,  4.3945,  7.1259
1496545378.1555919647,1496545378.1578719616, -0.6472, -0.6592,  0.4541, -5.8746,  4.3945,  7.1259
1496545378.1579411030,1496545378.1602270603, -0.6472, -0.6592,  0.4541, -5.8746,  4.3945,  7.1259
1496545378.1603970528,1496545378.1628029346, -0.6472, -0.6592,  0.4541, -5.8746,  4.3945,  7.1259
1496545378.1628730297,1496545378.1652779579, -0.6472, -0.6592,  0.4541, -7.9346,  5.4626,  6.5918
1496545378.1653480530,1496545378.1677598953, -0.6472, -0.6592,  0.4541, -7.9346,  5.4626,  6.5918
1496545378.1678299904,1496545378.1702399254, -0.6555, -0.6541,  0.4412, -7.9346,  5.4626,  6.5918
1496545378.1703090668,1496545378.1727340221, -0.6555, -0.6541,  0.4412, -7.9346,  5.4626,  6.5918
1496545378.1728041172,1496545378.1752099991, -0.6555, -0.6541,  0.4412, -7.9346,  4.8065,  6.9427
1496545378.1752800941,1496545378.1776840687, -0.6555, -0.6541,  0.4412, -7.9346,  4.8065,  6.9427
1496545378.1777539253,1496545378.1801650524, -0.6555, -0.6541,  0.4412, -7.9346,  4.8065,  6.9427
1496545378.1802361012,1496545378.1826860905, -0.6555, -0.6541,  0.4412, -7.9346,  4.8065,  6.9427
1496545378.1827559471,1496545378.1851630211, -0.6555, -0.6541,  0.4412,-10.3607,  6.2103,  5.0201
1496545378.1852378845,1496545378.1876480579, -0.6555, -0.6541,  0.4412,-10.3607,  6.2103,  5.0201
1496545378.1877210140,1496545378.1901280880, -0.6763, -0.6868,  0.4265,-10.3607,  6.2103,  5.0201
1496545378.1902010441,1496545378.1926150322, -0.6763, -0.6868,  0.4265,-10.3607,  6.2103,  5.0201
1496545378.1926889420,1496545378.1950991154, -0.6763, -0.6868,  0.4265,-10.3607,  6.2103,  5.0201
1496545378.1951730251,1496545378.1975769997, -0.6763, -0.6868,  0.4265, -8.8043,  6.2561,  5.0201
1496545378.1976480484,1496545378.2000520229, -0.6763, -0.6868,  0.4265, -8.8043,  6.2561,  5.0201
1496545378.2001221180,1496545378.2024500370, -0.6763, -0.6868,  0.4265, -8.8043,  6.2561,  5.0201
1496545378.2025210857,1496545378.2048029900, -0.6763, -0.6868,  0.4265, -8.8043,  6.2561,  5.0201
1496545378.2048730850,1496545378.2071609497, -0.6763, -0.6868,  0.4265, -8.6517,  6.1493,  5.3101
1496545378.2072310448,1496545378.2095201015, -0.6589, -0.6865,  0.4241, -8.6517,  6.1493,  5.3101
1496545378.2095899582,1496545378.2119479179, -0.6589, -0.6865,  0.4241, -8.6517,  6.1493,  5.3101
1496545378.2120199203,1496545378.2144351006, -0.6589, -0.6865,  0.4241, -8.6517,  6.1493,  5.3101
1496545378.2145059109,1496545378.2169120312, -0.6589, -0.6865,  0.4241, -7.7667,  6.3324,  5.2338
1496545378.2169818878,1496545378.2193920612, -0.6589, -0.6865,  0.4241, -7.7667,  6.3324,  5.2338
1496545378.2194619179,1496545378.2219080925, -0.6589, -0.6865,  0.4241, -7.7667,  6.3324,  5.2338
1496545378.2219779491,1496545378.2243750095, -0.6589, -0.6865,  0.4241, -7.7667,  6.3324,  5.2338
1496545378.2244451046,1496545378.2268569469, -0.6589, -0.6865,  0.4241, -7.7667,  6.3324,  5.0354
1496545378.2269270420,1496545378.2293291092, -0.6589, -0.6453,  0.4353, -8.6975,  7.3853,  5.0354
1496545378.2293999195,1496545378.2318120003, -0.6724, -0.6453,  0.4353, -8.6975,  7.3853,  5.0354
1496545378.2318840027,1496545378.2342870235, -0.6724, -0.6453,  0.4353, -8.6975,  7.3853,  5.0354
1496545378.2343580723,1496545378.2367639542, -0.6724, -0.6453,  0.4353, -8.6975,  7.3853,  5.0354
1496545378.2368340492,1496545378.2392420769, -0.6724, -0.6453,  0.4353,-10.3912,  8.8348,  6.1035
1496545378.2393169403,1496545378.2417330742, -0.6724, -0.6453,  0.4353,-10.3912,  8.8348,  6.1035
1496545378.2418079376,1496545378.2442140579, -0.6724, -0.6453,  0.4353,-10.3912,  8.8348,  6.1035
1496545378.2442879677,1496545378.2466959953, -0.6724, -0.6453,  0.4353,-10.3912,  8.8348,  6.1035
1496545378.2467699051,1496545378.2491788864, -0.6724, -0.6445,  0.4692, -7.3090,  7.4615,  7.4158
1496545378.2492489815,1496545378.2516601086, -0.6836, -0.6445,  0.4692, -7.3090,  7.4615,  7.4158
1496545378.2517299652,1496545378.2540071011, -0.6836, -0.6445,  0.4692, -7.3090,  7.4615,  7.4158
1496545378.2540779114,1496545378.2563591003, -0.6836, -0.6445,  0.4692, -7.3090,  7.4615,  7.4158
1496545378.2564289570,1496545378.2587149143, -0.6836, -0.6445,  0.4692, -7.3090,  6.0883,  7.8125
1496545378.2587840557,1496545378.2611320019, -0.6836, -0.6445,  0.4692, -4.9133,  6.0883,  7.8125
1496545378.2612020969,1496545378.2636148930, -0.6836, -0.6445,  0.4692, -4.9133,  6.0883,  7.8125
1496545378.2637910843,1496545378.2662029266, -0.6836, -0.6445,  0.4692, -4.9133,  6.0883,  7.8125
1496545378.2662730217,1496545378.2686779499, -0.6836, -0.6445,  0.4561, -4.9133,  6.0883,  3.9062
1496545378.2687489986,1496545378.2711710930, -0.6929, -0.5991,  0.4561, -7.4463,  6.6986,  7.0953
1496545378.2712409496,1496545378.2736439705, -0.6929, -0.5991,  0.4561, -7.4463,  6.6986,  7.0953
1496545378.2737140656,1496545378.2761199474, -0.6929, -0.5991,  0.4561, -7.4463,  6.6986,  7.0953
1496545378.2761900425,1496545378.2786018848, -0.6929, -0.5991,  0.4561, -7.4463,  6.6986,  7.0953
1496545378.2786719799,1496545378.2810940742, -0.6929, -0.5991,  0.4561,-10.3302,  7.1259,  7.3853
1496545378.2811670303,1496545378.2835719585, -0.6929, -0.5991,  0.4561,-10.3302,  7.1259,  7.3853
1496545378.2836449146,1496545378.2860569954, -0.6929, -0.5991,  0.4561,-10.3302,  7.1259,  7.3853
1496545378.2861299515,1496545378.2885339260, -0.6929, -0.5991,  0.4561,-10.3302,  7.1259,  7.3853
1496545378.2886080742,1496545378.2910189629, -0.6919, -0.6108,  0.4539,-11.7950,  8.0872,  7.6752
1496545378.2910940647,1496545378.2934970856, -0.6919, -0.6108,  0.4539,-11.7950,  8.0872,  7.6752
1496545378.2935709953,1496545378.2959749699, -0.6919, -0.6108,  0.4539,-11.7950,  8.0872,  7.6752
1496545378.2960491180,1496545378.2984580994, -0.6919, -0.6108,  0.4539,-11.7950,  8.0872,  7.6752
1496545378.2985329628,1496545378.3009390831, -0.6919, -0.6108,  0.4539,-11.7950,  8.0872,  7.9956
1496545378.3010139465,1496545378.3032960892, -0.6919, -0.6108,  0.4539,-13.6261,  8.7585,  7.9956
1496545378.3033690453,1496545378.3056540489, -0.6919, -0.6108,  0.4539,-13.6261,  8.7585,  7.9956
1496545378.3057270050,1496545378.3080101013, -0.6919, -0.6108,  0.4539,-13.6261,  8.7585,  7.9956
1496545378.3080849648,1496545378.3103721142, -0.6794, -0.6257,  0.4539,-13.6261,  8.7585,  7.9956
1496545378.3104460239,1496545378.3129110336, -0.6794, -0.6257,  0.4539,-15.1215, 10.0098,  8.7433
1496545378.3129880428,1496545378.3153519630, -0.6794, -0.6257,  0.4539,-15.1215, 10.0098,  8.7433
1496545378.3154280186,1496545378.3178040981, -0.6794, -0.6257,  0.4539,-15.1215, 10.0098,  8.7433
1496545378.3178811073,1496545378.3202500343, -0.6794, -0.6257,  0.4539,-15.1215, 10.0098,  8.7433
1496545378.3203270435,1496545378.3227438927, -0.6794, -0.6257,  0.4539,-16.6321, 10.9100,  9.5673
1496545378.3228209019,1496545378.3252298832, -0.6794, -0.6257,  0.4539,-16.6321, 10.9100,  9.5673
1496545378.3253080845,1496545378.3277120590, -0.6794, -0.6257,  0.4539,-16.6321, 10.9100,  9.5673
1496545378.3277890682,1496545378.3301980495, -0.6965, -0.6233,  0.4619,-16.6321, 10.9100,  9.5673
1496545378.3302741051,1496545378.3326919079, -0.6965, -0.6233,  0.4619,-16.6321, 11.7340, 10.4675
1496545378.3327701092,1496545378.3351790905, -0.6965, -0.6233,  0.4619,-16.9983, 11.7340, 10.4675
1496545378.3352570534,1496545378.3376719952, -0.6965, -0.6233,  0.4619,-16.9983, 11.7340, 10.4675
1496545378.3377499580,1496545378.3401579857, -0.6965, -0.6233,  0.4619,-16.9983, 11.7340, 10.4675
1496545378.3402359486,1496545378.3425860405, -0.6965, -0.6233,  0.4619,-16.9983, 11.7340, 10.4675
1496545378.3426649570,1496545378.3449509144, -0.6965, -0.6233,  0.4619,-19.5618, 12.7411, 11.1694
1496545378.3450291157,1496545378.3473091125, -0.6965, -0.6233,  0.4619,-19.5618, 12.7411, 11.1694
1496545378.3473870754,1496545378.3496708870, -0.7261, -0.5964,  0.4434,-19.5618, 12.7411, 11.1694
1496545378.3497490883,1496545378.3521399498, -0.7261, -0.5964,  0.4434,-19.5618, 12.7411, 11.1694
1496545378.3522191048,1496545378.3546268940, -0.7261, -0.5964,  0.4434,-22.9034, 13.2294, 12.3444
1496545378.3547050953,1496545378.3571128845, -0.7261, -0.5964,  0.4434,-22.9034, 13.2294, 12.3444
1496545378.3571910858,1496545378.3596000671, -0.7261, -0.5964,  0.4434,-22.9034, 13.2294, 12.3444
1496545378.3596780300,1496545378.3620939255, -0.7261, -0.5964,  0.4434,-22.9034, 13.2294, 12.3444
1496545378.3621730804,1496545378.3645870686, -0.7261, -0.5964,  0.4434,-26.8097, 13.2294, 14.1907
1496545378.3646659851,1496545378.3670690060, -0.7261, -0.5964,  0.4434,-24.2004, 13.2294, 14.1907
1496545378.3672571182,1496545378.3696639538, -0.7483, -0.6382,  0.4119,-24.2004, 13.2294, 14.1907
1496545378.3697431087,1496545378.3721570969, -0.7483, -0.6382,  0.4119,-24.2004, 13.2294, 14.1907
1496545378.3722350597,1496545378.3746409416, -0.7483, -0.6382,  0.4119,-24.2004, 13.2294, 15.2130
1496545378.3747189045,1496545378.3771250248, -0.7483, -0.6382,  0.4119,-22.9187, 13.6108, 15.2130
1496545378.3772029877,1496545378.3796079159, -0.7483, -0.6382,  0.4119,-22.9187, 13.6108, 15.2130
1496545378.3796870708,1496545378.3821029663, -0.7483, -0.6382,  0.4119,-22.9187, 13.6108, 15.2130
1496545378.3821818829,1496545378.3845920563, -0.7483, -0.6382,  0.4119,-22.9187, 13.6108, 15.2130
1496545378.3846709728,1496545378.3870689869, -0.7483, -0.6382,  0.4119,-21.1487, 14.3280, 15.6250
1496545378.3871490955,1496545378.3895609379, -0.8108, -0.6223,  0.3801,-21.1487, 14.3280, 15.6250
1496545378.3896400928,1496545378.3920218945, -0.7578, -0.6223,  0.3801,-21.1487, 14.3280, 15.6250
1496545378.3921010494,1496545378.3943860531, -0.7578, -0.6223,  0.3801,-21.1487, 14.3280, 15.6250
1496545378.3944640160,1496545378.3967521191, -0.7578, -0.6223,  0.3801,-21.3623, 15.7623, 14.8773
1496545378.3968288898,1496545378.3991069794, -0.7578, -0.6223,  0.3801,-21.3623, 15.7623, 14.8773
1496545378.3991849422,1496545378.4015328884, -0.7578, -0.6223,  0.3801,-21.3623, 15.7623, 14.8773
1496545378.4016098976,1496545378.4040019512, -0.7578, -0.6223,  0.3801,-21.3623, 15.7623, 14.8773
1496545378.4040789604,1496545378.4065289497, -0.7578, -0.6223,  0.3801,-21.3623, 15.7623, 14.1907
1496545378.4066081047,1496545378.4088900089, -0.7578, -0.6223,  0.3750,-22.0795, 17.0288, 14.1907
1496545378.4089701176,1496545378.4114389420, -0.7485, -0.6372,  0.3750,-22.0795, 17.0288, 14.1907
1496545378.4115180969,1496545378.4138851166, -0.7485, -0.6372,  0.3750,-22.0795, 17.0288, 14.1907
1496545378.4139640331,1496545378.4164490700, -0.7485, -0.6372,  0.3750,-22.0795, 17.0288, 14.1907
1496545378.4165279865,1496545378.4188919067, -0.7485, -0.6372,  0.3750,-21.6980, 18.9056, 12.4817
1496545378.4189701080,1496545378.4223899841, -0.7485, -0.6372,  0.3750,-21.6980, 18.9056, 12.4817
1496545378.4224720001,1496545378.4248769283, -0.7485, -0.6372,  0.3750,-21.6980, 18.9056, 12.4817
1496545378.4249560833,1496545378.4273600578, -0.7485, -0.6372,  0.3750,-21.6980, 18.9056, 11.6272
1496545378.4274389744,1496545378.4298439026, -0.7500, -0.6055,  0.3621,-23.6969, 19.7144, 11.6272
1496545378.4299230576,1496545378.4323439598, -0.7500, -0.6055,  0.3621,-23.6969, 19.7144, 11.6272
1496545378.4324231148,1496545378.4348309040, -0.7500, -0.6055,  0.3621,-23.6969, 19.7144, 11.6272
1496545378.4349100590,1496545378.4373168945, -0.7500, -0.6055,  0.3621,-23.6969, 19.7144, 11.6272
1496545378.4373970032,1496545378.4398000240, -0.7500, -0.6055,  0.3621,-25.6653, 20.3400, 10.3149
1496545378.4398798943,1496545378.4422171116, -0.7500, -0.6055,  0.3621,-25.6653, 20.3400, 10.3149
1496545378.4422969818,1496545378.4445750713, -0.7500, -0.6055,  0.3621,-25.6653, 20.3400, 10.3149
1496545378.4446539879,1496545378.4469389915, -0.7500, -0.6055,  0.3621,-25.6653, 20.3400, 10.3149
1496545378.4470191002,1496545378.4493000507, -0.7500, -0.6045,  0.3853,-26.0162, 20.4468,  9.2316
1496545378.4493780136,1496545378.4517009258, -0.7883, -0.6045,  0.3853,-26.0162, 20.4468,  9.2316
1496545378.4517779350,1496545378.4540560246, -0.7883, -0.6045,  0.3853,-26.0162, 20.4468,  9.2316
1496545378.4541320801,1496545378.4564120770, -0.7883, -0.6045,  0.3853,-26.0162, 20.4468,  9.2316
1496545378.4564890862,1496545378.4587650299, -0.7883, -0.6045,  0.3853,-26.0162, 20.4468,  9.2316
1496545378.4588420391,1496545378.4611361027, -0.7883, -0.6045,  0.3853,-25.4211, 19.6686,  8.8806
1496545378.4612150192,1496545378.4634900093, -0.7883, -0.6045,  0.3853,-25.4211, 19.6686,  8.8806
1496545378.4635670185,1496545378.4658489227, -0.7883, -0.6045,  0.3853,-25.4211, 19.6686,  8.8806
1496545378.4659259319,1496545378.4682140350, -0.7883, -0.6045,  0.3853,-25.4211, 19.6686,  8.8806
1496545378.4682900906,1496545378.4705700874, -0.8257, -0.6116,  0.3796,-23.8190, 18.6157,  8.3313
1496545378.4709360600,1496545378.4732298851, -0.8257, -0.6116,  0.3796,-23.8190, 18.6157,  8.3313
1496545378.4733068943,1496545378.4755918980, -0.8257, -0.6116,  0.3796,-23.8190, 18.6157,  8.3313
1496545378.4756689072,1496545378.4779520035, -0.8257, -0.6116,  0.3796,-23.8190, 18.6157,  8.3313
1496545378.4780290127,1496545378.4803171158, -0.8257, -0.6116,  0.3796,-23.8190, 18.6157,  8.3160
1496545378.4803929329,1496545378.4829010963, -0.8257, -0.6116,  0.3796,-21.6064, 16.9220,  8.3160
1496545378.4829790592,1496545378.4853849411, -0.8257, -0.6116,  0.3796,-21.6064, 16.9220,  8.3160
1496545378.4854629040,1496545378.4878709316, -0.8257, -0.6116,  0.3796,-21.6064, 16.9220,  8.3160
1496545378.4879479408,1496545378.4903559685, -0.8608, -0.6118,  0.3574,-21.6064, 16.9220,  8.3160
1496545378.4904339314,1496545378.4927740097, -0.8608, -0.6118,  0.3574,-19.5007, 15.2435,  7.8735
1496545378.4928500652,1496545378.4951388836, -0.8608, -0.6118,  0.3574,-19.5007, 15.2435,  7.8735
1496545378.4952149391,1496545378.4974980354, -0.8608, -0.6118,  0.3574,-19.5007, 15.2435,  7.8735
1496545378.4975719452,1496545378.4998528957, -0.8608, -0.6118,  0.3574,-19.5007, 15.2435,  7.8735
1496545378.4999289513,1496545378.5023388863, -0.8608, -0.6118,  0.3574,-18.3563, 14.6332,  7.0343
1496545378.5024149418,1496545378.5048201084, -0.8608, -0.6118,  0.3574,-18.3563, 14.6332,  7.0343
1496545378.5048959255,1496545378.5073060989, -0.8608, -0.6118,  0.3574,-18.3563, 14.6332,  7.0343
1496545378.5073809624,1496545378.5097789764, -0.8608, -0.5964,  0.2949,-18.3563, 14.6332,  7.0343
1496545378.5098550320,1496545378.5123069286, -0.8601, -0.5964,  0.2949,-18.3563, 14.6332,  5.3101
1496545378.5123829842,1496545378.5147900581, -0.8601, -0.5964,  0.2949,-18.6768, 13.3362,  5.3101
1496545378.5148670673,1496545378.5172729492, -0.8601, -0.5964,  0.2949,-18.6768, 13.3362,  5.3101
1496545378.5173490047,1496545378.5197548866, -0.8601, -0.5964,  0.2949,-18.6768, 13.3362,  5.3101
1496545378.5198309422,1496545378.5222780704, -0.8601, -0.5964,  0.2949,-18.6768, 13.3362,  1.4038
1496545378.5223550797,1496545378.5247631073, -0.8601, -0.5964,  0.2949,-21.8201, 12.1307,  3.5858
1496545378.5248401165,1496545378.5272450447, -0.8601, -0.5964,  0.2949,-21.8201, 12.1307,  3.5858
1496545378.5273211002,1496545378.5297238827, -0.8601, -0.6130,  0.2454,-21.8201, 12.1307,  3.5858
1496545378.5298008919,1496545378.5322160721, -0.8228, -0.6130,  0.2454,-21.8201, 12.1307,  3.5858
1496545378.5322930813,1496545378.5346980095, -0.8228, -0.6130,  0.2454,-26.3214, 12.3138,  0.3815
1496545378.5347740650,1496545378.5372300148, -0.8228, -0.6130,  0.2454,-26.3214, 12.3138,  0.3815
1496545378.5373079777,1496545378.5397210121, -0.8228, -0.6130,  0.2454,-26.3214, 12.3138,  0.3815
1496545378.5397980213,1496545378.5421369076, -0.8228, -0.6130,  0.2454,-26.3214, 12.3138,  0.3815
1496545378.5422139168,1496545378.5444939137, -0.8228, -0.6130,  0.2454,-31.5399, 12.6190, -2.8687
1496545378.5445709229,1496545378.5468540192, -0.8228, -0.6130,  0.2454,-31.5399, 12.6190, -2.8687
1496545378.5469300747,1496545378.5492110252, -0.8228, -0.6755,  0.1682,-31.5399, 12.6190, -2.8687
1496545378.5492870808,1496545378.5516319275, -0.7952, -0.6255,  0.1682,-31.5399, 12.6190, -2.8687
1496545378.5517079830,1496545378.5541150570, -0.7952, -0.6255,  0.1682,-31.5399, 12.6190, -6.7749
1496545378.5541911125,1496545378.5565979481, -0.7952, -0.6255,  0.1682,-35.7361, 13.3514, -6.5765
1496545378.5566749573,1496545378.5590848923, -0.7952, -0.6255,  0.1682,-35.7361, 13.3514, -6.5765
1496545378.5591619015,1496545378.5615739822, -0.7952, -0.6255,  0.1682,-35.7361, 13.3514, -6.5765
1496545378.5616509914,1496545378.5640521049, -0.7952, -0.6255,  0.1682,-35.7361, 13.3514, -6.5765
1496545378.5641291142,1496545378.5665359497, -0.7952, -0.6255,  0.1682,-41.6107, 14.0839,-11.0168
1496545378.5666139126,1496545378.5690150261, -0.7952, -0.6255,  0.1606,-41.6107, 14.0839,-11.0168
1496545378.5690929890,1496545378.5714778900, -0.7673, -0.6611,  0.1606,-41.6107, 14.0839,-11.0168
1496545378.5715560913,1496545378.5738329887, -0.7673, -0.6611,  0.1606,-41.6107, 14.0839,-11.0168
1496545378.5740249157,1496545378.5763099194, -0.7673, -0.6611,  0.1606,-45.7611, 13.8397,-14.4958
1496545378.5763890743,1496545378.5786719322, -0.7673, -0.6611,  0.1606,-45.7611, 13.8397,-14.4958
1496545378.5787498951,1496545378.5811800957, -0.7673, -0.6611,  0.1606,-45.7611, 13.8397,-14.4958
1496545378.5812590122,1496545378.5835359097, -0.7673, -0.6611,  0.1606,-45.7611, 13.8397,-14.4958
1496545378.5836141109,1496545378.5859050751, -0.7673, -0.6611,  0.1606,-45.7611, 13.8397,-17.3187
1496545378.5859820843,1496545378.5882649422, -0.7673, -0.6611,  0.1606,-46.6766, 13.0920,-17.3187
1496545378.5883419514,1496545378.5906310081, -0.8018, -0.6848,  0.2107,-46.6766, 13.0920,-17.3187
1496545378.5908710957,1496545378.5931580067, -0.8018, -0.6848,  0.2107,-46.6766, 13.0920,-17.3187
1496545378.5932369232,1496545378.5955200195, -0.8018, -0.6848,  0.2107,-46.6766, 13.0920,-17.3187
1496545378.5955979824,1496545378.5978839397, -0.8018, -0.6848,  0.2107,-44.6777, 12.5275,-18.7073
1496545378.5979630947,1496545378.6002480984, -0.8018, -0.6848,  0.2107,-44.6777, 12.5275,-18.7073
1496545378.6003251076,1496545378.6027460098, -0.8018, -0.6848,  0.2107,-44.6777, 12.5275,-18.7073
1496545378.6028249264,1496545378.6052389145, -0.8018, -0.6848,  0.2107,-44.6777, 12.5275,-18.7073
1496545378.6053171158,1496545378.6077220440, -0.8018, -0.6848,  0.2107,-40.7715, 11.6119,-19.3787
1496545378.6078009605,1496545378.6102089882, -0.8481, -0.6777,  0.2217,-41.7480, 11.6119,-19.3787
1496545378.6102869511,1496545378.6127030849, -0.8481, -0.6777,  0.2217,-41.7480, 11.6119,-19.3787
1496545378.6127810478,1496545378.6151850224, -0.8481, -0.6777,  0.2217,-41.7480, 11.6119,-19.3787
1496545378.6152629852,1496545378.6176750660, -0.8481, -0.6777,  0.2217,-41.7480, 11.6119,-20.0500
1496545378.6177530289,1496545378.6201560497, -0.8481, -0.6777,  0.2217,-39.2456, 10.2386,-20.0500
1496545378.6202340126,1496545378.6226849556, -0.8481, -0.6777,  0.2217,-39.2456, 10.2386,-20.0500
1496545378.6227629185,1496545378.6251718998, -0.8481, -0.6777,  0.2217,-39.2456, 10.2386,-20.0500
1496545378.6252501011,1496545378.6276559830, -0.8481, -0.6777,  0.2217,-39.2456, 10.2386,-20.0500
1496545378.6277348995,1496545378.6301450729, -0.8896, -0.6519,  0.2776,-39.1998,  9.4299,-19.9127
1496545378.6302220821,1496545378.6326289177, -0.8896, -0.6519,  0.2776,-39.1998,  9.4299,-19.9127
1496545378.6327059269,1496545378.6351130009, -0.8896, -0.6519,  0.2776,-39.1998,  9.4299,-19.9127
1496545378.6351890564,1496545378.6375980377, -0.8896, -0.6519,  0.2776,-39.1998,  9.4299,-19.9127
1496545378.6376740932,1496545378.6400790215, -0.8896, -0.6519,  0.2776,-40.2985,  7.6752,-18.6920
1496545378.6401560307,1496545378.6424789429, -0.8896, -0.6519,  0.2776,-40.2985,  7.6752,-18.6920
1496545378.6425559521,1496545378.6448450089, -0.8896, -0.6519,  0.2776,-40.2985,  7.6752,-18.6920
1496545378.6449210644,1496545378.6472039223, -0.8896, -0.6519,  0.2776,-40.2985,  7.6752,-18.6920
1496545378.6472799778,1496545378.6495609283, -0.8896, -0.6772,  0.3149,-40.2985,  7.6752,-16.1133
1496545378.6496379375,1496545378.6519949436, -0.9106, -0.6772,  0.3149,-38.2233,  5.6915,-16.1133
1496545378.6520709991,1496545378.6544818878, -0.9106, -0.6772,  0.3149,-38.2233,  5.6915,-16.1133
1496545378.6545569897,1496545378.6569700241, -0.9106, -0.6772,  0.3149,-38.2233,  5.6915,-16.1133
1496545378.6570470333,1496545378.6594579220, -0.9106, -0.6772,  0.3149,-38.2233,  5.6915,-16.1133
1496545378.6595349312,1496545378.6619470119, -0.9106, -0.6772,  0.3149,-31.8451,  3.7384,-13.8397
1496545378.6620230675,1496545378.6644299030, -0.9106, -0.6772,  0.3149,-31.8451,  3.7384,-13.8397
1496545378.6645059586,1496545378.6669130325, -0.9106, -0.6772,  0.3149,-31.8451,  3.7384,-13.8397
1496545378.6669890881,1496545378.6694009304, -0.9106, -0.6772,  0.3015,-31.8451,  3.7384,-13.8397
1496545378.6694769859,1496545378.6718940735, -0.9089, -0.6575,  0.3015,-28.7933,  2.4109,-11.9019
1496545378.6719698906,1496545378.6743769646, -0.9089, -0.6575,  0.3015,-28.7933,  2.4109,-11.9019
1496545378.6745529175,1496545378.6769669056, -0.9089, -0.6575,  0.3015,-28.7933,  2.4109,-11.9019
1496545378.6770439148,1496545378.6794550419, -0.9089, -0.6575,  0.3015,-28.7933,  2.4109,-11.9019
1496545378.6795320511,1496545378.6819469929, -0.9089, -0.6575,  0.3015,-28.6102,  2.1210,-10.4675
1496545378.6820240021,1496545378.6844348907, -0.9089, -0.6575,  0.3015,-28.6102,  2.1210,-10.4675
1496545378.6845118999,1496545378.6869189739, -0.9089, -0.6575,  0.3015,-28.6102,  2.1210,-10.4675
1496545378.6869950294,1496545378.6894049644, -0.9089, -0.6575,  0.3115,-28.6102,  2.1210,-10.4675
1496545378.6894810200,1496545378.6918570995, -0.8699, -0.6782,  0.3115,-28.6102,  2.1210, -9.8724
1496545378.6919310093,1496545378.6942141056, -0.8699, -0.6782,  0.3115,-27.5574,  0.4883, -9.8724
1496545378.6942889690,1496545378.6965770721, -0.8699, -0.6782,  0.3115,-27.5574,  0.4883, -9.8724
1496545378.6966509819,1496545378.6989319324, -0.8699, -0.6782,  0.3115,-27.5574,  0.4883, -9.8724
1496545378.6990060806,1496545378.7013559341, -0.8699, -0.6782,  0.3115,-27.5574,  0.4883, -9.8724
1496545378.7014310360,1496545378.7038459778, -0.8699, -0.6782,  0.3115,-24.8260, -0.1831, -9.3536
1496545378.7039198875,1496545378.7063229084, -0.8699, -0.6782,  0.3115,-24.8260, -0.1831, -9.3536
1496545378.7063970566,1496545378.7088088989, -0.8699, -0.6782,  0.3115,-24.8260, -0.1831, -9.3536
1496545378.7088840008,1496545378.7113010883, -0.8450, -0.6787,  0.3289,-24.8260, -0.1831, -9.3536
1496545378.7113759518,1496545378.7137789726, -0.8450, -0.6787,  0.3289,-21.1029, -0.6104, -8.6517
1496545378.7138540745,1496545378.7162640095, -0.8450, -0.6787,  0.3289,-21.1029, -0.6104, -8.6517
1496545378.7163391113,1496545378.7187390327, -0.8450, -0.6787,  0.3289,-21.1029, -0.6104, -8.6517
1496545378.7188138962,1496545378.7212240696, -0.8450, -0.6787,  0.3289,-21.1029, -0.6104, -8.6517
1496545378.7212989330,1496545378.7237100601, -0.8450, -0.6787,  0.3289,-21.1029, -0.6104, -8.6670
1496545378.7237849236,1496545378.7261869907, -0.8450, -0.6787,  0.3289,-17.0135, -2.4567, -8.6670
1496545378.7262620926,1496545378.7286710739, -0.8450, -0.6787,  0.3289,-17.0135, -2.4567, -8.6670
1496545378.7287459373,1496545378.7311599255, -0.8171, -0.6667,  0.3560,-17.0135, -2.4567, -8.6670
1496545378.7312340736,1496545378.7336390018, -0.8171, -0.6667,  0.3560,-17.0135, -2.4567, -8.6670
1496545378.7337129116,1496545378.7361149788, -0.8171, -0.6667,  0.3560,-13.9618, -4.7913, -9.1553
1496545378.7361900806,1496545378.7385959625, -0.8171, -0.6667,  0.3560,-13.9618, -4.7913, -9.1553
1496545378.7386701107,1496545378.7410979271, -0.8171, -0.6667,  0.3560,-13.9618, -4.7913, -9.1553
1496545378.7411720753,1496545378.7434659004, -0.8171, -0.6667,  0.3560,-13.9618, -4.7913, -9.1553
1496545378.7435400486,1496545378.7458169460, -0.8171, -0.6667,  0.3560, -9.9487, -6.1188, -8.9264
1496545378.7458879948,1496545378.7481729984, -0.8171, -0.6667,  0.3560, -9.9487, -6.1188, -8.9264
1496545378.7482440472,1496545378.7505249977, -0.8008, -0.6489,  0.3530, -9.9487, -6.1188, -8.9264
1496545378.7505950928,1496545378.7530028820, -0.8008, -0.6489,  0.3530, -9.9487, -6.1188, -8.9264
1496545378.7530739307,1496545378.7554819584, -0.8008, -0.6489,  0.3530, -9.9487, -7.6447, -9.0485
1496545378.7555539608,1496545378.7579600811, -0.8008, -0.6489,  0.3530, -6.9885, -7.6447, -9.0485
1496545378.7580308914,1496545378.7604401112, -0.8008, -0.6489,  0.3530, -6.9885, -7.6447, -9.0485
1496545378.7605109215,1496545378.7629299164, -0.8008, -0.6489,  0.3530, -6.9885, -7.6447, -9.0485
1496545378.7630009651,1496545378.7654030323, -0.8008, -0.6489,  0.3530, -6.9885, -7.6447, -9.0485
1496545378.7654740810,1496545378.7678799629, -0.8008, -0.6489,  0.3530, -4.8370, -9.2773, -9.1248
1496545378.7679510117,1496545378.7703580856, -0.7952, -0.6619,  0.3428, -4.8370, -9.2773, -9.1248
1496545378.7704300880,1496545378.7728810310, -0.7952, -0.6619,  0.3428, -4.8370, -9.2773, -9.1248
1496545378.7729530334,1496545378.7753629684, -0.7952, -0.6619,  0.3428, -4.8370, -9.2773, -9.1248
1496545378.7754340172,1496545378.7778370380, -0.7952, -0.6619,  0.3428, -3.1433,-10.3912, -9.5673
1496545378.7780189514,1496545378.7804279327, -0.7952, -0.6619,  0.3428, -3.1433,-10.3912, -9.5673
1496545378.7805020809,1496545378.7829210758, -0.7952, -0.6619,  0.3428, -3.1433,-10.3912, -9.5673
1496545378.7829949856,1496545378.7854049206, -0.7952, -0.6619,  0.3428, -3.1433,-10.3912, -9.5673
1496545378.7854790688,1496545378.7878890038, -0.7952, -0.6619,  0.3428, -1.0986,-11.6577, -9.8114
1496545378.7879641056,1496545378.7903730869, -0.8167, -0.6648,  0.3083, -1.0986,-11.6577, -9.8114
1496545378.7904479504,1496545378.7927770615, -0.8167, -0.6648,  0.3083, -1.0986,-11.6577, -9.8114
1496545378.7928519249,1496545378.7951369286, -0.8167, -0.6648,  0.3083, -1.0986,-11.6577, -9.8114
1496545378.7952110767,1496545378.7974929810, -0.8167, -0.6648,  0.3083, -1.0986,-11.6577, -9.8572
1496545378.7975680828,1496545378.7998490334, -0.8167, -0.6648,  0.3083,  0.9155,-12.4817, -9.8572
1496545378.7999238968,1496545378.8023350239, -0.8167, -0.6648,  0.3083,  0.9155,-12.4817, -9.8572
1496545378.8024098873,1496545378.8048191071, -0.8167, -0.6648,  0.3083,  0.9155,-12.4817, -9.8572
1496545378.8048930168,1496545378.8073039055, -0.8167, -0.6648,  0.3083,  0.9155,-12.4817, -9.8572
1496545378.8073790073,1496545378.8097810745, -0.8167, -0.6648,  0.2749,  1.6785,-13.3057,-10.3760
1496545378.8098568916,1496545378.8123030663, -0.8044, -0.6553,  0.2749,  1.6785,-13.3057,-10.3760
1496545378.8123800755,1496545378.8147931099, -0.8044, -0.6553,  0.2749,  1.6785,-13.3057,-10.3760
1496545378.8148701191,1496545378.8172729015, -0.8044, -0.6553,  0.2749,  1.6785,-13.3057,-10.3760
1496545378.8173480034,1496545378.8197550774, -0.8044, -0.6553,  0.2749,  1.0071,-13.2446,-11.2000
1496545378.8198308945,1496545378.8222010136, -0.8044, -0.6553,  0.2749,  1.0071,-13.2446,-11.2000
1496545378.8222780228,1496545378.8245611191, -0.8044, -0.6553,  0.2749,  1.0071,-13.2446,-11.2000
1496545378.8246369362,1496545378.8269209862, -0.8044, -0.6553,  0.2749,  1.0071,-13.2446,-11.2000
1496545378.8269970417,1496545378.8292770386, -0.8044, -0.6553,  0.2124,  1.0071,-13.2446,-11.8561
1496545378.8293540478,1496545378.8318879604, -0.8005, -0.6790,  0.2444,  0.3510,-13.4735,-11.8561
1496545378.8319649696,1496545378.8342540264, -0.8005, -0.6790,  0.2444,  0.3510,-13.4735,-11.8561
1496545378.8343300819,1496545378.8366110325, -0.8005, -0.6790,  0.2444,  0.3510,-13.4735,-11.8561
1496545378.8366870880,1496545378.8389739990, -0.8005, -0.6790,  0.2444,  0.3510,-13.4735,-11.8561
1496545378.8390500546,1496545378.8414859772, -0.8005, -0.6790,  0.2444, -0.1373,-13.7329,-12.5275
1496545378.8415629864,1496545378.8438448906, -0.8005, -0.6790,  0.2444, -0.1373,-13.7329,-12.5275
1496545378.8439199924,1496545378.8462069035, -0.8005, -0.6790,  0.2444, -0.1373,-13.7329,-12.5275
1496545378.8462829590,1496545378.8486530781, -0.8005, -0.6790,  0.2444, -0.1373,-13.7329,-12.5275
1496545378.8487288952,1496545378.8511860371, -0.7847, -0.6926,  0.2502, -0.4272,-12.9089,-12.8632
1496545378.8512630463,1496545378.8536798954, -0.7847, -0.6926,  0.2502, -0.4272,-12.9089,-12.8632
1496545378.8537559509,1496545378.8561599255, -0.7847, -0.6926,  0.2502, -0.4272,-12.9089,-12.8632
1496545378.8562359810,1496545378.8586480618, -0.7847, -0.6926,  0.2502, -0.4272,-12.9089,-12.8632
1496545378.8587241173,1496545378.8611369133, -0.7847, -0.6926,  0.2502, -0.4272, -9.0027,-12.9395
1496545378.8612110615,1496545378.8636119366, -0.7847, -0.6926,  0.2502, -0.5341,-11.2305,-12.9395
1496545378.8636879921,1496545378.8660929203, -0.7847, -0.6926,  0.2502, -0.5341,-11.2305,-12.9395
1496545378.8661699295,1496545378.8685779572, -0.7847, -0.6926,  0.2502, -0.5341,-11.2305,-12.9395
1496545378.8686540127,1496545378.8711040020, -0.7703, -0.7029,  0.2017, -0.5341,-11.2305,-12.9395
1496545378.8711810112,1496545378.8735959530, -0.7703, -0.7029,  0.2017, -0.9308, -9.7961,-12.9700
1496545378.8736710548,1496545378.8760800362, -0.7703, -0.7029,  0.2017, -0.9308, -9.7961,-12.9700
1496545378.8761548996,1496545378.8785629272, -0.7703, -0.7029,  0.2017, -0.9308, -9.7961,-12.9700
1496545378.8786370754,1496545378.8810689449, -0.7703, -0.7029,  0.2017, -0.9308, -9.7961,-12.9700
1496545378.8812539577,1496545378.8835380077, -0.7703, -0.7029,  0.2017, -2.4109, -8.7585,-13.0463
1496545378.8836119175,1496545378.8858969212, -0.7703, -0.7029,  0.2017, -2.4109, -8.7585,-13.0463
1496545378.8859701157,1496545378.8882529736, -0.7703, -0.7029,  0.2017, -2.4109, -8.7585,-13.0463
1496545378.8883259296,1496545378.8906080723, -0.7534, -0.7134,  0.1970, -2.4109, -8.7585,-13.0463
1496545378.8907389641,1496545378.8930299282, -0.7534, -0.7134,  0.1970, -6.3171, -6.6681,-13.2904
1496545378.8931028843,1496545378.8953828812, -0.7534, -0.7134,  0.1970, -4.4861, -6.6681,-13.2904
1496545378.8954548836,1496545378.8977360725, -0.7534, -0.7134,  0.1970, -4.4861, -6.6681,-13.2904
1496545378.8978090286,1496545378.9000890255, -0.7534, -0.7134,  0.1970, -4.4861, -6.6681,-13.2904
1496545378.9001610279,1496545378.9025540352, -0.7534, -0.7134,  0.1970, -4.4861, -6.6681,-13.2904
1496545378.9026279449,1496545378.9049170017, -0.7534, -0.7134,  0.1970, -6.7139, -4.4403,-13.7177
1496545378.9049899578,1496545378.9072709084, -0.7534, -0.7134,  0.1970, -6.7139, -4.4403,-13.7177
1496545378.9073441029,1496545378.9096250534, -0.7534, -0.7134,  0.2046, -6.7139, -4.4403,-13.7177
1496545378.9096989632,1496545378.9122090340, -0.7305, -0.7200,  0.2046, -6.7139, -4.4403,-13.7177
1496545378.9122838974,1496545378.9146919250, -0.7305, -0.7200,  0.2046, -8.0566, -2.0447,-13.1836
1496545378.9147660732,1496545378.9171800613, -0.7305, -0.7200,  0.2046, -8.0566, -2.0447,-13.1836
1496545378.9172539711,1496545378.9196600914, -0.7305, -0.7200,  0.2046, -8.0566, -2.0447,-13.1836
1496545378.9197349548,1496545378.9221529961, -0.7305, -0.7200,  0.2046, -8.0566, -2.0447,-13.1836
1496545378.9222280979,1496545378.9246389866, -0.7305, -0.7200,  0.2046, -8.0566,  0.1526,-13.4735
1496545378.9247150421,1496545378.9271221161, -0.7305, -0.7200,  0.2046, -7.7667,  0.1526,-13.4735
1496545378.9271960258,1496545378.9296050072, -0.7305, -0.7200,  0.2310, -7.7667,  0.1526,-13.4735
1496545378.9296789169,1496545378.9321029186, -0.6934, -0.7102,  0.2310, -7.7667,  0.1526,-13.4735
1496545378.9321770668,1496545378.9345860481, -0.6934, -0.7102,  0.2310, -7.7667,  0.1526,-13.4735
1496545378.9346590042,1496545378.9370729923, -0.6934, -0.7102,  0.2310, -8.1940,  1.8616,-13.3667
1496545378.9371469021,1496545378.9395499229, -0.6934, -0.7102,  0.2310, -8.1940,  1.8616,-13.3667
1496545378.9396250248,1496545378.9419660568, -0.6934, -0.7102,  0.2310, -8.1940,  1.8616,-13.3667
1496545378.9420409203,1496545378.9443280697, -0.6934, -0.7102,  0.2310, -8.1940,  1.8616,-13.3667
1496545378.9444019794,1496545378.9466838837, -0.6934, -0.7102,  0.2310, -8.8501,  3.6316,-13.3057
1496545378.9467580318,1496545378.9490430355, -0.6934, -0.7102,  0.2310, -8.8501,  3.6316,-13.3057
1496545378.9491169453,1496545378.9515240192, -0.6870, -0.7078,  0.2520, -8.8501,  3.6316,-13.3057
1496545378.9515988827,1496545378.9539990425, -0.6870, -0.7078,  0.2520, -8.8501,  3.6316,-13.3057
1496545378.9540739059,1496545378.9564850330, -0.6870, -0.7078,  0.2520, -8.8501,  5.2948,-14.3433
1496545378.9565598965,1496545378.9589629173, -0.6870, -0.7078,  0.2520, -9.8877,  5.2948,-14.3433
1496545378.9590361118,1496545378.9614839554, -0.6870, -0.7078,  0.2520, -9.8877,  5.2948,-14.3433
1496545378.9615590572,1496545378.9639699459, -0.6870, -0.7078,  0.2520, -9.8877,  5.2948,-14.3433
1496545378.9640440941,1496545378.9664480686, -0.6870, -0.7078,  0.2520, -9.8877,  5.2948,-14.5111
1496545378.9665229321,1496545378.9690780640, -0.6870, -0.7078,  0.2520, -9.9792,  7.0648,-14.5111
1496545378.9691550732,1496545378.9715709686, -0.7180, -0.6973,  0.2334, -9.9792,  7.0648,-14.5111
1496545378.9716460705,1496545378.9740478992, -0.7180, -0.6973,  0.2334, -9.9792,  7.0648,-14.5111
1496545378.9741220474,1496545378.9765269756, -0.7180, -0.6973,  0.2334, -9.9792,  7.0648,-14.5111
1496545378.9766008854,1496545378.9790089130, -0.7180, -0.6973,  0.2334,-10.4523,  9.4147,-14.4806
1496545378.9790859222,1496545378.9814999104, -0.7180, -0.6973,  0.2334,-10.4523,  9.4147,-14.4806
1496545378.9815769196,1496545378.9839799404, -0.7180, -0.6973,  0.2334,-10.4523,  9.4147,-14.4806
1496545378.9841639996,1496545378.9865698814, -0.7180, -0.6973,  0.2334,-10.4523,  9.4147,-14.4806
1496545378.9866468906,1496545378.9890499115, -0.7180, -0.6973,  0.2334,-13.3209, 11.5051,-14.8468
1496545378.9891281128,1496545378.9915039539, -0.7471, -0.6729,  0.1958,-13.3209, 11.5051,-14.8468
1496545378.9915831089,1496545378.9938609600, -0.7471, -0.6729,  0.1958,-13.3209, 11.5051,-14.8468
1496545378.9939401150,1496545378.9962210655, -0.7471, -0.6729,  0.1958,-13.3209, 11.5051,-14.8468
1496545378.9962990284,1496545378.9985809326, -0.7471, -0.6729,  0.1958,-13.3209, 13.5651,-15.4724
1496545378.9986588955,1496545379.0009520054, -0.7471, -0.6729,  0.1958,-17.6697, 13.5651,-15.4724
1496545379.0010309219,1496545379.0033149719, -0.7471, -0.6729,  0.1958,-17.6697, 13.5651,-15.4724
1496545379.0033950806,1496545379.0056760311, -0.7471, -0.6729,  0.1958,-17.6697, 13.5651,-15.4724
1496545379.0057539940,1496545379.0080349445, -0.7471, -0.6729,  0.1958,-17.6697, 13.5651,-15.4724
1496545379.0081119537,1496545379.0103929043, -0.8096, -0.7039,  0.1960,-22.2931, 16.4032,-16.3422
1496545379.0104720592,1496545379.0128901005, -0.7856, -0.7039,  0.1960,-22.2931, 16.4032,-16.3422
1496545379.0129699707,1496545379.0152530670, -0.7856, -0.7039,  0.1960,-22.2931, 16.4032,-16.3422
1496545379.0153319836,1496545379.0176138878, -0.7856, -0.7039,  0.1960,-22.2931, 16.4032,-16.3422
1496545379.0176920891,1496545379.0199670792, -0.7856, -0.7039,  0.1960,-26.1993, 18.3868,-18.2190
1496545379.0200450420,1496545379.0224370956, -0.7856, -0.7039,  0.1960,-25.4211, 18.3868,-18.2190
1496545379.0225160122,1496545379.0249190331, -0.7856, -0.7039,  0.1960,-25.4211, 18.3868,-18.2190
1496545379.0249979496,1496545379.0274078846, -0.7856, -0.7039,  0.1960,-25.4211, 18.3868,-18.2190
1496545379.0274870396,1496545379.0298891068, -0.7856, -0.7039,  0.2671,-25.4211, 18.3868,-19.8364
1496545379.0299680233,1496545379.0323829651, -0.8203, -0.7061,  0.2671,-27.5879, 19.0430,-19.8364
1496545379.0324618816,1496545379.0348749161, -0.8203, -0.7061,  0.2671,-27.5879, 19.0430,-19.8364
1496545379.0349540710,1496545379.0373570919, -0.8203, -0.7061,  0.2671,-27.5879, 19.0430,-19.8364
1496545379.0374369621,1496545379.0398440361, -0.8203, -0.7061,  0.2671,-27.5879, 19.0430,-19.8364
1496545379.0399229527,1496545379.0422649384, -0.8203, -0.7061,  0.2671,-25.3754, 18.3411,-20.6299
1496545379.0423450470,1496545379.0446259975, -0.8203, -0.7061,  0.2671,-25.3754, 18.3411,-20.6299
1496545379.0447049141,1496545379.0469861031, -0.8203, -0.7061,  0.2671,-25.3754, 18.3411,-20.6299
1496545379.0470659733,1496545379.0493500233, -0.8203, -0.7061,  0.2671,-25.3754, 18.3411,-20.6299
1496545379.0494279861,1496545379.0517790318, -0.8723, -0.6978,  0.3330,-20.3705, 14.5111,-21.1792
1496545379.0518579483,1496545379.0542659760, -0.8723, -0.6978,  0.3330,-20.3705, 14.5111,-21.1792
1496545379.0543439388,1496545379.0567491055, -0.8723, -0.6978,  0.3330,-20.3705, 14.5111,-21.1792
1496545379.0568280220,1496545379.0592360497, -0.8723, -0.6978,  0.3330,-20.3705, 14.5111,-21.1792
1496545379.0593140125,1496545379.0617361069, -0.8723, -0.6978,  0.3330,-20.3705, 14.5111,-21.9879
1496545379.0618150234,1496545379.0642209053, -0.8723, -0.6978,  0.3330,-15.3351, 11.4136,-21.9879
1496545379.0643000603,1496545379.0666999817, -0.8723, -0.6978,  0.3330,-15.3351, 11.4136,-21.9879
1496545379.0667788982,1496545379.0691800117, -0.8723, -0.6978,  0.3330,-15.3351, 11.4136,-21.9879
1496545379.0692589283,1496545379.0717089176, -0.8491, -0.6213,  0.3384,-15.3351, 11.4136,-21.9879
1496545379.0717880726,1496545379.0741949081, -0.8491, -0.6213,  0.3384,-14.9536,  9.2316,-22.6746
1496545379.0742719173,1496545379.0766770840, -0.8491, -0.6213,  0.3384,-14.9536,  9.2316,-22.6746
1496545379.0767529011,1496545379.0791599751, -0.8491, -0.6213,  0.3384,-14.9536,  9.2316,-22.6746
1496545379.0792369843,1496545379.0816879272, -0.8491, -0.6213,  0.3384,-14.9536,  9.2316,-22.6746
1496545379.0817639828,1496545379.0841689110, -0.8491, -0.6213,  0.3384,-16.7694,  6.4850,-23.5443
1496545379.0842449665,1496545379.0866498947, -0.8491, -0.6213,  0.3384,-16.7694,  6.4850,-23.5443
1496545379.0868330002,1496545379.0892410278, -0.8491, -0.6213,  0.3384,-16.7694,  6.4850,-23.5443
1496545379.0893170834,1496545379.0916841030, -0.8281, -0.6492,  0.2673,-16.7694,  6.4850,-23.5443
1496545379.0917599201,1496545379.0940480232, -0.8281, -0.6492,  0.2673,-19.6838,  3.9978,-24.3225
1496545379.0941228867,1496545379.0964028835, -0.8281, -0.6492,  0.2673,-19.6838,  3.9978,-24.3225
1496545379.0964789391,1496545379.0987579823, -0.8281, -0.6492,  0.2673,-19.6838,  3.9978,-24.3225
1496545379.0988340378,1496545379.1011450291, -0.8281, -0.6492,  0.2673,-19.6838,  3.9978,-24.3225
1496545379.1012210846,1496545379.1036260128, -0.8281, -0.6492,  0.2673,-19.6838,  3.9978,-24.3225
1496545379.1037030220,1496545379.1061100960, -0.8281, -0.6492,  0.2673,-23.6359,  2.8229,-25.7874
1496545379.1061871052,1496545379.1085939407, -0.8281, -0.6492,  0.2673,-23.6359,  2.8229,-25.7874
1496545379.1086709499,1496545379.1111209393, -0.8152, -0.7012,  0.2393,-23.6359,  2.8229,-25.7874
1496545379.1111989021,1496545379.1136040688, -0.8152, -0.7012,  0.2393,-23.6359,  2.8229,-25.7874
1496545379.1136810780,1496545379.1160860062, -0.8152, -0.7012,  0.2393,-25.1923,  0.9613,-27.3132
1496545379.1161639690,1496545379.1185710430, -0.8152, -0.7012,  0.2393,-25.1923,  0.9613,-27.3132
1496545379.1186490059,1496545379.1211009026, -0.8152, -0.7012,  0.2393,-25.1923,  0.9613,-27.3132
1496545379.1211779118,1496545379.1235818863, -0.8152, -0.7012,  0.2393,-25.1923,  0.9613,-27.3132
1496545379.1236588955,1496545379.1260609627, -0.8152, -0.7012,  0.2393,-25.4974, -1.0986,-27.9541
1496545379.1261379719,1496545379.1285440922, -0.8152, -0.7012,  0.2393,-25.4974, -1.0986,-27.9541
1496545379.1286211014,1496545379.1310279369, -0.8176, -0.7207,  0.2209,-25.4974, -1.0986,-27.9541
1496545379.1311039925,1496545379.1335101128, -0.8176, -0.7207,  0.2209,-25.4974, -1.0986,-27.9541
1496545379.1335859299,1496545379.1359939575, -0.8176, -0.7207,  0.2209,-25.4974, -2.6398,-28.3203
1496545379.1360700130,1496545379.1384708881, -0.8176, -0.7207,  0.2209,-24.0173, -2.6398,-28.3203
1496545379.1385478973,1496545379.1409590244, -0.8176, -0.7207,  0.2209,-24.0173, -2.6398,-28.3203
1496545379.1410338879,1496545379.1433119774, -0.8176, -0.7207,  0.2209,-24.0173, -2.6398,-28.3203
1496545379.1433889866,1496545379.1456680298, -0.8176, -0.7207,  0.2209,-24.0173, -2.6398,-28.3203
1496545379.1457440853,1496545379.1480228901, -0.8176, -0.7207,  0.2209,-22.4609, -3.9825,-28.7476
1496545379.1480998993,1496545379.1503789425, -0.8176, -0.7334,  0.2383,-22.4609, -3.9825,-28.7476
1496545379.1504549980,1496545379.1529109478, -0.7908, -0.7334,  0.2383,-22.4609, -3.9825,-28.7476
1496545379.1529879570,1496545379.1553909779, -0.7908, -0.7334,  0.2383,-22.4609, -3.9825,-28.7476
1496545379.1554679871,1496545379.1578691006, -0.7908, -0.7334,  0.2383,-21.4081, -5.5847,-29.7699
1496545379.1579449177,1496545379.1603469849, -0.7908, -0.7334,  0.2383,-21.4081, -5.5847,-29.7699
1496545379.1604230404,1496545379.1628320217, -0.7908, -0.7334,  0.2383,-21.4081, -5.5847,-29.7699
1496545379.1629090309,1496545379.1653120518, -0.7908, -0.7334,  0.2383,-21.4081, -5.5847,-29.7699
1496545379.1653881073,1496545379.1677858829, -0.7908, -0.7334,  0.2383,-21.4081, -6.3782,-30.2429
1496545379.1678628922,1496545379.1702599525, -0.7908, -0.7334,  0.2322,-21.2402, -6.3782,-30.2429
1496545379.1703350544,1496545379.1727480888, -0.7620, -0.7546,  0.2322,-21.2402, -6.3782,-30.2429
1496545379.1728260517,1496545379.1752231121, -0.7620, -0.7546,  0.2322,-21.2402, -6.3782,-30.2429
1496545379.1752989292,1496545379.1777060032, -0.7620, -0.7546,  0.2322,-21.2402, -6.3782,-34.1492
1496545379.1777820587,1496545379.1801888943, -0.7620, -0.7546,  0.2322,-20.9656, -8.7891,-31.6315
1496545379.1802649498,1496545379.1826109886, -0.7620, -0.7546,  0.2322,-20.9656, -8.7891,-31.6315
1496545379.1826889515,1496545379.1849730015, -0.7620, -0.7546,  0.2322,-20.9656, -8.7891,-31.6315
1496545379.1850500107,1496545379.1873331070, -0.7620, -0.7546,  0.2322,-20.9656, -8.7891,-31.6315
1496545379.1875109673,1496545379.1897909641, -0.7620, -0.7546,  0.2322,-19.8212, -9.7961,-31.6620
1496545379.1898689270,1496545379.1922399998, -0.7463, -0.7605,  0.2136,-19.8212, -9.7961,-31.6620
1496545379.1923179626,1496545379.1947219372, -0.7463, -0.7605,  0.2136,-19.8212, -9.7961,-31.6620
1496545379.1947989464,1496545379.1972041130, -0.7463, -0.7605,  0.2136,-19.8212, -9.7961,-31.6620
1496545379.1972808838,1496545379.1996829510, -0.7463, -0.7605,  0.2136,-15.9149,-11.1084,-31.8451
1496545379.1997609138,1496545379.2021789551, -0.7463, -0.7605,  0.2136,-18.4631,-11.1084,-31.8451
1496545379.2022569180,1496545379.2046649456, -0.7463, -0.7605,  0.2136,-18.4631,-11.1084,-31.8451
1496545379.2047429085,1496545379.2071499825, -0.7463, -0.7605,  0.2136,-18.4631,-11.1084,-31.8451
1496545379.2072279453,1496545379.2096340656, -0.7463, -0.7605,  0.2136,-18.4631,-11.1084,-32.4554
1496545379.2097120285,1496545379.2121319771, -0.7307, -0.7705,  0.1636,-17.8986,-12.2833,-32.4554
1496545379.2122089863,1496545379.2146160603, -0.7307, -0.7705,  0.1636,-17.8986,-12.2833,-32.4554
1496545379.2146930695,1496545379.2170939445, -0.7307, -0.7705,  0.1636,-17.8986,-12.2833,-32.4554
1496545379.2171730995,1496545379.2195758820, -0.7307, -0.7705,  0.1636,-17.8986,-12.2833,-32.4554
1496545379.2196550369,1496545379.2220981121, -0.7307, -0.7705,  0.1636,-18.8141,-13.0463,-32.3486
1496545379.2221770287,1496545379.2245829105, -0.7307, -0.7705,  0.1636,-18.8141,-13.0463,-32.3486
1496545379.2246611118,1496545379.2270679474, -0.7307, -0.7705,  0.1636,-18.8141,-13.0463,-32.3486
1496545379.2271459103,1496545379.2295489311, -0.7307, -0.7705,  0.1636,-18.8141,-13.0463,-32.3486
1496545379.2296268940,1496545379.2319641113, -0.7258, -0.7864,  0.1592,-19.6075,-14.1296,-33.0048
1496545379.2320430279,1496545379.2343258858, -0.7258, -0.7864,  0.1592,-19.6075,-14.1296,-33.0048
1496545379.2344028950,1496545379.2366809845, -0.7258, -0.7864,  0.1592,-19.6075,-14.1296,-33.0048
1496545379.2367579937,1496545379.2390389442, -0.7258, -0.7864,  0.1592,-19.6075,-14.1296,-33.0048
1496545379.2391159534,1496545379.2414860725, -0.7258, -0.7864,  0.1592,-19.6075,-14.1296,-32.7148
1496545379.2415640354,1496545379.2439649105, -0.7258, -0.7864,  0.1592,-18.6768,-15.2740,-32.7148
1496545379.2440450191,1496545379.2464480400, -0.7258, -0.7864,  0.1592,-18.6768,-15.2740,-32.7148
1496545379.2465260029,1496545379.2489199638, -0.7258, -0.7864,  0.1592,-18.6768,-15.2740,-32.7148
1496545379.2489979267,1496545379.2514090538, -0.7170, -0.8074,  0.1755,-18.6768,-15.2740,-32.7148
1496545379.2514860630,1496545379.2538900375, -0.7170, -0.8074,  0.1755,-16.4642,-15.9912,-31.9519
1496545379.2539670467,1496545379.2563729286, -0.7170, -0.8074,  0.1755,-16.4642,-15.9912,-31.9519
1496545379.2564499378,1496545379.2588601112, -0.7170, -0.8074,  0.1755,-16.4642,-15.9912,-31.9519
1496545379.2589368820,1496545379.2613599300, -0.7170, -0.8074,  0.1755,-16.4642,-15.9912,-31.9519
1496545379.2614369392,1496545379.2638390064, -0.7170, -0.8074,  0.1755,-14.6332,-17.0288,-31.6315
1496545379.2639169693,1496545379.2663209438, -0.7170, -0.8074,  0.1755,-14.6332,-17.0288,-31.6315
1496545379.2663989067,1496545379.2687959671, -0.7170, -0.8074,  0.1755,-14.6332,-17.0288,-31.6315
1496545379.2688739300,1496545379.2713189125, -0.6943, -0.8032,  0.1855,-14.6332,-17.0288,-31.6315
1496545379.2713959217,1496545379.2738010883, -0.6943, -0.8032,  0.1855,-13.4888,-18.3258,-32.1045
1496545379.2738780975,1496545379.2762839794, -0.6943, -0.8032,  0.1855,-13.4888,-18.3258,-32.1045
1496545379.2763619423,1496545379.2787699699, -0.6943, -0.8032,  0.1855,-13.4888,-18.3258,-32.1045
1496545379.2788479328,1496545379.2812728882, -0.6943, -0.8032,  0.1855,-13.4888,-18.3258,-32.1045
1496545379.2813510895,1496545379.2836320400, -0.6943, -0.8032,  0.1855,-13.4888,-18.3258,-31.7230
1496545379.2837090492,1496545379.2859869003, -0.6943, -0.8032,  0.1855,-13.0768,-20.0500,-31.7230
1496545379.2860651016,1496545379.2883429527, -0.6943, -0.8032,  0.1855,-13.0768,-20.0500,-31.7230
1496545379.2884199619,1496545379.2907400131, -0.6943, -0.8035,  0.1863,-13.0768,-20.0500,-31.7230
1496545379.2909250259,1496545379.2933189869, -0.6533, -0.8035,  0.1863,-13.0768,-20.0500,-31.7230
1496545379.2933969498,1496545379.2957839966, -0.6533, -0.8035,  0.1863,-12.3749,-21.0876,-31.0516
1496545379.2958619595,1496545379.2982459068, -0.6533, -0.8035,  0.1863,-12.3749,-21.0876,-31.0516
1496545379.2983241081,1496545379.3007180691, -0.6533, -0.8035,  0.1863,-12.3749,-21.0876,-31.0516
1496545379.3007950783,1496545379.3031818867, -0.6533, -0.8035,  0.1863,-12.3749,-21.0876,-31.0516
1496545379.3032600880,1496545379.3056449890, -0.6533, -0.8035,  0.1863,-11.2610,-22.2931,-30.6244
1496545379.3057229519,1496545379.3081099987, -0.6533, -0.8035,  0.1863,-11.2610,-22.2931,-30.6244
1496545379.3081879616,1496545379.3105731010, -0.6533, -0.8660,  0.2170,-11.2610,-22.2931,-30.6244
1496545379.3107569218,1496545379.3131248951, -0.6367, -0.8230,  0.2170,-11.2610,-22.2931,-30.6244
1496545379.3132030964,1496545379.3155670166, -0.6367, -0.8230,  0.2170,-11.2610,-22.2931,-29.6326
1496545379.3156449795,1496545379.3180079460, -0.6367, -0.8230,  0.2170,-10.2997,-23.3154,-29.6326
1496545379.3180859089,1496545379.3204460144, -0.6367, -0.8230,  0.2170,-10.2997,-23.3154,-29.6326
1496545379.3205230236,1496545379.3229429722, -0.6367, -0.8230,  0.2170,-10.2997,-23.3154,-29.6326
1496545379.3230209351,1496545379.3254230022, -0.6367, -0.8230,  0.2170,-10.2997,-23.3154,-29.6326
1496545379.3255009651,1496545379.3279020786, -0.6367, -0.8230,  0.2170, -8.3008,-24.4751,-28.3661
1496545379.3279778957,1496545379.3303780556, -0.6367, -0.8230,  0.1985, -8.3008,-24.4751,-28.3661
1496545379.3304560184,1496545379.3327889442, -0.6235, -0.8232,  0.1985, -8.3008,-24.4751,-28.3661
1496545379.3328659534,1496545379.3351449966, -0.6235, -0.8232,  0.1985, -8.3008,-24.4751,-28.3661
1496545379.3352210522,1496545379.3375349045, -0.6235, -0.8232,  0.1985, -7.6294,-25.0549,-27.2064
1496545379.3376119137,1496545379.3398919106, -0.6235, -0.8232,  0.1985, -7.6294,-25.0549,-27.2064
1496545379.3399679661,1496545379.3423399925, -0.6235, -0.8232,  0.1985, -7.6294,-25.0549,-27.2064
1496545379.3424160480,1496545379.3448228836, -0.6235, -0.8232,  0.1985, -7.6294,-25.0549,-27.2064
1496545379.3448979855,1496545379.3472979069, -0.6235, -0.8232,  0.1985, -7.6294,-25.0549,-26.4740
1496545379.3473749161,1496545379.3497788906, -0.6235, -0.8232,  0.1985, -6.5765,-24.8871,-26.4740
1496545379.3498549461,1496545379.3523170948, -0.6255, -0.8484,  0.1890, -6.5765,-24.8871,-26.4740
1496545379.3523941040,1496545379.3547990322, -0.6255, -0.8484,  0.1890, -6.5765,-24.8871,-26.4740
1496545379.3548760414,1496545379.3572809696, -0.6255, -0.8484,  0.1890, -6.5765,-24.8871,-26.4740
1496545379.3573570251,1496545379.3597619534, -0.6255, -0.8484,  0.1890, -4.6692,-25.6042,-26.0315
1496545379.3598380089,1496545379.3622870445, -0.6255, -0.8484,  0.1890, -4.6692,-25.6042,-26.0315
1496545379.3623640537,1496545379.3647720814, -0.6255, -0.8484,  0.1890, -4.6692,-25.6042,-26.0315
1496545379.3648478985,1496545379.3672521114, -0.6255, -0.8484,  0.1890, -4.6692,-25.6042,-26.0315
1496545379.3673279285,1496545379.3697330952, -0.6255, -0.8484,  0.1890, -2.3346,-26.2299,-25.9094
1496545379.3698089123,1496545379.3722190857, -0.6113, -0.8462,  0.1892, -2.3346,-26.2299,-25.9094
1496545379.3722949028,1496545379.3746969700, -0.6113, -0.8462,  0.1892, -2.3346,-26.2299,-25.9094
1496545379.3747739792,1496545379.3771800995, -0.6113, -0.8462,  0.1892, -2.3346,-26.2299,-25.9094
1496545379.3772571087,1496545379.3796598911, -0.6113, -0.8462,  0.1892, -1.1902,-25.6805,-25.1465
1496545379.3797359467,1496545379.3820838928, -0.6113, -0.8462,  0.1892, -1.1902,-25.6805,-25.1465
1496545379.3821609020,1496545379.3844470978, -0.6113, -0.8462,  0.1892, -1.1902,-25.6805,-25.1465
1496545379.3845219612,1496545379.3868041039, -0.6113, -0.8462,  0.1892, -1.1902,-25.6805,-25.1465
1496545379.3868799210,1496545379.3893229961, -0.6113, -0.8462,  0.1892, -1.1902,-25.6805,-24.3225
1496545379.3894009590,1496545379.3919639587, -0.5974, -0.8408,  0.1663, -0.0610,-25.7263,-24.3225
1496545379.3920431137,1496545379.3944070339, -0.5974, -0.8408,  0.1663, -0.0610,-25.7263,-24.3225
1496545379.3946061134,1496545379.3970899582, -0.5974, -0.8408,  0.1663, -0.0610,-25.7263,-24.3225
1496545379.3972051144,1496545379.3995690346, -0.5974, -0.8408,  0.1663, -0.0610,-25.7263,-24.3225
1496545379.3996450901,1496545379.4022829533, -0.5974, -0.8408,  0.1663,  0.7782,-24.7803,-24.0326
1496545379.4023609161,1496545379.4047648907, -0.5974, -0.8408,  0.1663,  0.7782,-24.7803,-24.0326
1496545379.4048418999,1496545379.4072489738, -0.5974, -0.8408,  0.1663,  0.7782,-24.7803,-24.0326
1496545379.4073250294,1496545379.4097321033, -0.5974, -0.8408,  0.1663,  0.7782,-24.7803,-24.0326
1496545379.4098079205,1496545379.4122030735, -0.5681, -0.8352,  0.1975,  0.6561,-24.1241,-23.8953
1496545379.4122788906,1496545379.4146699905, -0.5681, -0.8352,  0.1975,  0.6561,-24.1241,-23.8953
1496545379.4147450924,1496545379.4171369076, -0.5681, -0.8352,  0.1975,  0.6561,-24.1241,-23.8953
1496545379.4172129631,1496545379.4196081161, -0.5681, -0.8352,  0.1975,  0.6561,-24.1241,-23.8953
1496545379.4196839333,1496545379.4220869541, -0.5681, -0.8352,  0.1975,  1.1444,-23.0103,-23.7732
1496545379.4221620560,1496545379.4245560169, -0.5681, -0.8352,  0.1975,  1.1444,-23.0103,-23.7732
1496545379.4246311188,1496545379.4270229340, -0.5681, -0.8352,  0.1975,  1.1444,-23.0103,-23.7732
1496545379.4270989895,1496545379.4294910431, -0.5681, -0.8352,  0.1975,  1.1444,-23.0103,-23.7732
1496545379.4295670986,1496545379.4319140911, -0.5586, -0.8455,  0.2061,  1.1444,-21.4539,-23.5596
1496545379.4319911003,1496545379.4342710972, -0.5586, -0.8455,  0.2061,  2.3499,-21.4539,-23.5596
1496545379.4343469143,1496545379.4366650581, -0.5586, -0.8455,  0.2061,  2.3499,-21.4539,-23.5596
1496545379.4367420673,1496545379.4390249252, -0.5586, -0.8455,  0.2061,  2.3499,-21.4539,-23.5596
1496545379.4391009808,1496545379.4413928986, -0.5586, -0.8455,  0.2061,  2.3499,-21.4539,-23.5596
1496545379.4414689541,1496545379.4437539577, -0.5586, -0.8455,  0.2061,  3.2959,-19.8822,-23.1934
1496545379.4438300133,1496545379.4461109638, -0.5586, -0.8455,  0.2061,  3.2959,-19.8822,-23.1934
1496545379.4461860657,1496545379.4484679699, -0.5586, -0.8455,  0.2061,  3.2959,-19.8822,-23.1934
1496545379.4485430717,1496545379.4508719444, -0.5586, -0.8452,  0.2390,  3.2959,-19.8822,-23.1934
1496545379.4509470463,1496545379.4532380104, -0.5464, -0.8452,  0.2390,  7.2021,-18.0206,-22.6593
1496545379.4533150196,1496545379.4556028843, -0.5464, -0.8452,  0.2390,  4.2725,-18.0206,-22.6593
1496545379.4556779861,1496545379.4579629898, -0.5464, -0.8452,  0.2390,  4.2725,-18.0206,-22.6593
1496545379.4580390453,1496545379.4603219032, -0.5464, -0.8452,  0.2390,  4.2725,-18.0206,-22.6593
1496545379.4603970051,1496545379.4628939629, -0.5464, -0.8452,  0.2390,  4.2725,-18.0206,-22.6593
1496545379.4629709721,1496545379.4653799534, -0.5464, -0.8452,  0.2390,  5.0659,-16.5863,-22.3236
1496545379.4654560089,1496545379.4678630829, -0.5464, -0.8452,  0.2390,  5.0659,-16.5863,-22.3236
1496545379.4679389000,1496545379.4703440666, -0.5464, -0.8452,  0.2390,  5.0659,-16.5863,-22.3236
1496545379.4704198837,1496545379.4728269577, -0.5391, -0.8418,  0.2393,  5.0659,-16.5863,-22.3236
1496545379.4729030132,1496545379.4753050804, -0.5391, -0.8418,  0.2393,  5.2185,-15.1215,-22.0337
1496545379.4753820896,1496545379.4777879715, -0.5391, -0.8418,  0.2393,  5.2185,-15.1215,-22.0337
1496545379.4778649807,1496545379.4802689552, -0.5391, -0.8418,  0.2393,  5.2185,-15.1215,-22.0337
1496545379.4803459644,1496545379.4826591015, -0.5391, -0.8418,  0.2393,  5.2185,-15.1215,-22.0337
1496545379.4827361107,1496545379.4850189686, -0.5391, -0.8418,  0.2393,  5.2185,-13.7024,-21.4233
1496545379.4850950241,1496545379.4873828888, -0.5391, -0.8418,  0.2393,  5.0201,-13.7024,-21.4233
1496545379.4874589443,1496545379.4897379875, -0.5391, -0.8418,  0.2393,  5.0201,-13.7024,-21.4233
1496545379.4898130894,1496545379.4921898842, -0.5334, -0.8379,  0.2297,  5.0201,-13.7024,-21.4233
1496545379.4922659397,1496545379.4946730137, -0.5334, -0.8379,  0.2297,  5.0201,-13.7024,-21.4233
1496545379.4947500229,1496545379.4971520901, -0.5334, -0.8379,  0.2297,  4.3640,-12.2223,-21.0876
1496545379.4973390102,1496545379.4997420311, -0.5334, -0.8379,  0.2297,  4.3640,-12.2223,-21.0876
1496545379.4998190403,1496545379.5022261143, -0.5334, -0.8379,  0.2297,  4.3640,-12.2223,-21.0876
1496545379.5023009777,1496545379.5047070980, -0.5334, -0.8379,  0.2297,  4.3640,-12.2223,-21.0876
1496545379.5047829151,1496545379.5071859360, -0.5334, -0.8379,  0.2297,  3.4485,-10.9558,-20.7825
1496545379.5072619915,1496545379.5096659660, -0.5334, -0.8379,  0.2297,  3.4485,-10.9558,-20.7825
1496545379.5097410679,1496545379.5121579170, -0.5315, -0.8425,  0.2476,  3.4485,-10.9558,-20.7825
1496545379.5122339725,1496545379.5146338940, -0.5315, -0.8425,  0.2476,  3.4485,-10.9558,-20.7825
1496545379.5147099495,1496545379.5172619820, -0.5315, -0.8425,  0.2476,  2.5635,-10.0098,-20.2179
1496545379.5173399448,1496545379.5197548866, -0.5315, -0.8425,  0.2476,  2.5635,-10.0098,-20.2179
1496545379.5198318958,1496545379.5222830772, -0.5315, -0.8425,  0.2476,  2.5635,-10.0098,-20.2179
1496545379.5223588943,1496545379.5247669220, -0.5315, -0.8425,  0.2476,  2.5635,-10.0098,-20.2179
1496545379.5248429775,1496545379.5272500515, -0.5315, -0.8425,  0.2476,  2.5635, -8.8043,-19.5007
1496545379.5273239613,1496545379.5297279358, -0.5315, -0.8425,  0.2476,  2.1667, -8.8043,-19.5007
1496545379.5298030376,1496545379.5321269035, -0.5361, -0.8513,  0.2581,  2.1667, -8.8043,-19.5007
1496545379.5322020054,1496545379.5344820023, -0.5361, -0.8513,  0.2581,  2.1667, -8.8043,-19.5007
1496545379.5345571041,1496545379.5368340015, -0.5361, -0.8513,  0.2581,  2.1667, -8.8043,-19.5007
1496545379.5369069576,1496545379.5391910076, -0.5361, -0.8513,  0.2581,  2.0142, -8.2245,-18.5547
1496545379.5392649174,1496545379.5416009426, -0.5361, -0.8513,  0.2581,  2.0142, -8.2245,-18.5547
1496545379.5416760445,1496545379.5440759659, -0.5361, -0.8513,  0.2581,  2.0142, -8.2245,-18.5547
1496545379.5441510677,1496545379.5465629101, -0.5361, -0.8513,  0.2581,  2.0142, -8.2245,-18.5547
1496545379.5466380119,1496545379.5490419865, -0.5361, -0.8513,  0.2581,  2.3956, -7.6294,-17.2424
1496545379.5491158962,1496545379.5514910221, -0.5361, -0.8457,  0.2769,  2.3956, -7.6294,-17.2424
1496545379.5515649319,1496545379.5538458824, -0.5400, -0.8457,  0.2769,  2.3956, -7.6294,-17.2424
1496545379.5539200306,1496545379.5562000275, -0.5400, -0.8457,  0.2769,  2.3956, -7.6294,-17.2424
1496545379.5562739372,1496545379.5585589409, -0.5400, -0.8457,  0.2769,  2.3956, -7.6294,-15.4419
1496545379.5586318970,1496545379.5610430241, -0.5400, -0.8457,  0.2769,  2.9907, -7.4310,-15.4419
1496545379.5611169338,1496545379.5634009838, -0.5400, -0.8457,  0.2769,  2.9907, -7.4310,-15.4419
1496545379.5634739399,1496545379.5657610893, -0.5400, -0.8457,  0.2769,  2.9907, -7.4310,-15.4419
1496545379.5658340454,1496545379.5681109428, -0.5400, -0.8457,  0.2769,  2.9907, -7.4310,-15.4419
1496545379.5681850910,1496545379.5704610348, -0.5400, -0.8457,  0.2769,  2.6855, -7.0343,-14.1907
1496545379.5705339909,1496545379.5730559826, -0.5391, -0.8281,  0.2700,  2.6855, -7.0343,-14.1907
1496545379.5731298923,1496545379.5755369663, -0.5391, -0.8281,  0.2700,  2.6855, -7.0343,-14.1907
1496545379.5756099224,1496545379.5780220032, -0.5391, -0.8281,  0.2700,  2.6855, -7.0343,-14.1907
1496545379.5780959129,1496545379.5805060863, -0.5391, -0.8281,  0.2700,  1.8463, -6.7902,-13.0615
1496545379.5805799961,1496545379.5828790665, -0.5391, -0.8281,  0.2700,  1.8463, -6.7902,-13.0615
1496545379.5829529762,1496545379.5852410793, -0.5391, -0.8281,  0.2700,  1.8463, -6.7902,-13.0615
1496545379.5853140354,1496545379.5875959396, -0.5391, -0.8281,  0.2700,  1.8463, -6.7902,-13.0615
1496545379.5876688957,1496545379.5899450779, -0.5391, -0.8281,  0.2700,  1.8463, -6.7902,-13.0615
1496545379.5900180340,1496545379.5924079418, -0.5161, -0.8345,  0.2720,  1.1292, -6.6376,-12.3596
1496545379.5924820900,1496545379.5948860645, -0.5161, -0.8345,  0.2720,  1.1292, -6.6376,-12.3596
1496545379.5949590206,1496545379.5973680019, -0.5161, -0.8345,  0.2720,  1.1292, -6.6376,-12.3596
1496545379.5974409580,1496545379.5998430252, -0.5161, -0.8345,  0.2720,  1.1292, -6.6376,-12.3596
1496545379.6000249386,1496545379.6024839878, -0.5161, -0.8345,  0.2720,  0.3052, -6.8512,-11.2762
1496545379.6025578976,1496545379.6049709320, -0.5161, -0.8345,  0.2720,  0.3052, -6.8512,-11.2762
1496545379.6050450802,1496545379.6074450016, -0.5161, -0.8345,  0.2720,  0.3052, -6.8512,-11.2762
1496545379.6075189114,1496545379.6099228859, -0.5161, -0.8345,  0.2720,  0.3052, -6.8512,-11.2762
1496545379.6099970341,1496545379.6124050617, -0.5156, -0.8447,  0.2625, -0.2594, -6.5613,-10.0708
1496545379.6124789715,1496545379.6148838997, -0.5156, -0.8447,  0.2625, -0.2594, -6.5613,-10.0708
1496545379.6149580479,1496545379.6173670292, -0.5156, -0.8447,  0.2625, -0.2594, -6.5613,-10.0708
1496545379.6174409389,1496545379.6198480129, -0.5156, -0.8447,  0.2625, -0.2594, -6.5613,-10.0708
1496545379.6199219227,1496545379.6222560406, -0.5156, -0.8447,  0.2625, -0.2594, -6.2256, -9.2468
1496545379.6223280430,1496545379.6246120930, -0.5156, -0.8447,  0.2625,  0.3052, -6.2256, -9.2468
1496545379.6246829033,1496545379.6269650459, -0.5156, -0.8447,  0.2625,  0.3052, -6.2256, -9.2468
1496545379.6270360947,1496545379.6293120384, -0.5156, -0.8447,  0.2625,  0.3052, -6.2256, -9.2468
1496545379.6293830872,1496545379.6317560673, -0.5100, -0.8391,  0.2610,  0.3052, -6.2256, -9.2468
1496545379.6318280697,1496545379.6341021061, -0.5100, -0.8391,  0.2610,  0.3357, -6.1340, -8.3160
1496545379.6341741085,1496545379.6364541054, -0.5100, -0.8391,  0.2610,  0.3357, -6.1340, -8.3160
1496545379.6365270615,1496545379.6388010979, -0.5100, -0.8391,  0.2610,  0.3357, -6.1340, -8.3160
1496545379.6388731003,1496545379.6412909031, -0.5100, -0.8391,  0.2610,  0.3357, -6.1340, -8.3160
1496545379.6413640976,1496545379.6436519623, -0.5100, -0.8391,  0.2610, -0.3357, -5.7831, -7.7820
1496545379.6437230110,1496545379.6459960938, -0.5100, -0.8391,  0.2610, -0.3357, -5.7831, -7.7820
1496545379.6460669041,1496545379.6483380795, -0.5100, -0.8391,  0.2610, -0.3357, -5.7831, -7.7820
1496545379.6484088898,1496545379.6507279873, -0.5100, -0.8391,  0.2585, -0.3357, -5.7831, -7.7820
1496545379.6507980824,1496545379.6530730724, -0.5183, -0.8408,  0.2585, -0.3357, -5.7831, -7.7820
1496545379.6531429291,1496545379.6554210186, -0.5183, -0.8408,  0.2585, -1.0223, -6.4240, -6.9275
1496545379.6554911137,1496545379.6577711105, -0.5183, -0.8408,  0.2585, -1.0223, -6.4240, -6.9275
1496545379.6578400135,1496545379.6601099968, -0.5183, -0.8408,  0.2585, -1.0223, -6.4240, -6.9275
1496545379.6601800919,1496545379.6624639034, -0.5183, -0.8408,  0.2585, -1.0223, -6.4240, -6.9275
1496545379.6625349522,1496545379.6648089886, -0.5183, -0.8408,  0.2585, -0.8850, -6.3934, -5.9204
1496545379.6648790836,1496545379.6671550274, -0.5183, -0.8408,  0.2585, -0.8850, -6.3934, -5.9204
1496545379.6672248840,1496545379.6701579094, -0.5183, -0.8408,  0.2585, -0.8850, -6.3934, -5.9204
1496545379.6702320576,1496545379.6725199223, -0.5212, -0.8423,  0.2576, -0.8850, -6.3934, -5.9204
1496545379.6725909710,1496545379.6748700142, -0.5212, -0.8423,  0.2576, -0.8850, -6.3934, -5.2948
1496545379.6749401093,1496545379.6772129536, -0.5212, -0.8423,  0.2576, -1.2970, -6.0120, -5.2948
1496545379.6772830486,1496545379.6795620918, -0.5212, -0.8423,  0.2576, -1.2970, -6.0120, -5.2948
1496545379.6796319485,1496545379.6819179058, -0.5212, -0.8423,  0.2576, -1.2970, -6.0120, -5.2948
1496545379.6819880009,1496545379.6842648983, -0.5212, -0.8423,  0.2576, -1.2970, -6.0120, -5.2948
1496545379.6843340397,1496545379.6866118908, -0.5212, -0.8423,  0.2576, -2.8229, -5.8594, -4.9591
1496545379.6866810322,1496545379.6889638901, -0.5212, -0.8423,  0.2576, -2.8229, -5.8594, -4.9591
1496545379.6890330315,1496545379.6915459633, -0.5212, -0.8499,  0.2439, -2.8229, -5.8594, -4.9591
1496545379.6916170120,1496545379.6939120293, -0.5269, -0.8499,  0.2439, -2.8229, -5.8594, -4.9591
1496545379.6939818859,1496545379.6962668896, -0.5269, -0.8499,  0.2439, -2.8229, -6.0120, -4.3488
1496545379.6963379383,1496545379.6986210346, -0.5269, -0.8499,  0.2439, -3.9520, -6.0120, -4.3488
1496545379.6988139153,1496545379.7012948990, -0.5269, -0.8499,  0.2439, -3.9520, -6.0120, -4.3488
1496545379.7013659477,1496545379.7037339211, -0.5269, -0.8499,  0.2439, -3.9520, -6.0120, -4.3488
1496545379.7038040161,1496545379.7061700821, -0.5269, -0.8499,  0.2439, -3.9520, -6.0120, -0.4425
1496545379.7062408924,1496545379.7086908817, -0.5269, -0.8499,  0.2439, -4.5013, -5.6610, -3.7689
1496545379.7087619305,1496545379.7120809555, -0.5269, -0.8499,  0.2639, -4.5013, -5.6610, -3.7689
1496545379.7121520042,1496545379.7145640850, -0.5320, -0.8508,  0.2639, -4.5013, -5.6610, -3.7689
1496545379.7146339417,1496545379.7176339626, -0.5320, -0.8508,  0.2639, -4.5013, -5.6610, -3.2959
1496545379.7177059650,1496545379.7201159000, -0.5320, -0.8508,  0.2639, -4.1504, -5.3558, -3.2959
1496545379.7201859951,1496545379.7226049900, -0.5320, -0.8508,  0.2639, -4.1504, -5.3558, -3.2959
1496545379.7226750851,1496545379.7250819206, -0.5320, -0.8508,  0.2639, -4.1504, -5.3558, -3.2959
1496545379.7251510620,1496545379.7275600433, -0.5320, -0.8508,  0.2639, -4.1504, -5.3558, -2.8992
1496545379.7276299000,1496545379.7300350666, -0.5320, -0.8508,  0.2639, -4.1656, -4.8981, -2.8992
1496545379.7301049232,1496545379.7325229645, -0.5371, -0.8381,  0.2822, -4.1656, -4.8981, -2.8992
1496545379.7325930595,1496545379.7349998951, -0.5371, -0.8381,  0.2822, -4.1656, -4.8981, -2.8992
1496545379.7350690365,1496545379.7374739647, -0.5371, -0.8381,  0.2822, -4.1656, -4.8981, -2.8992
1496545379.7375440598,1496545379.7399499416, -0.5371, -0.8381,  0.2822, -4.5013, -4.8676, -2.3499
1496545379.7400200367,1496545379.7423439026, -0.5371, -0.8381,  0.2822, -4.5013, -4.8676, -2.3499
1496545379.7424139977,1496545379.7446990013, -0.5371, -0.8381,  0.2822, -4.5013, -4.8676, -2.3499
1496545379.7447679043,1496545379.7470510006, -0.5371, -0.8381,  0.2822, -4.5013, -4.8676, -2.3499
1496545379.7471210957,1496545379.7494070530, -0.5371, -0.8381,  0.2822, -4.4098, -4.9591, -2.1820
1496545379.7494769096,1496545379.7517600060, -0.5474, -0.8320,  0.2930, -4.4098, -4.9591, -2.1820
1496545379.7518310547,1496545379.7541089058, -0.5474, -0.8320,  0.2930, -4.4098, -4.9591, -2.1820
1496545379.7541790009,1496545379.7564599514, -0.5474, -0.8320,  0.2930, -4.4098, -4.9591, -2.1820
1496545379.7565300465,1496545379.7588150501, -0.5474, -0.8320,  0.2930, -4.4098, -4.9591, -2.1820
1496545379.7588860989,1496545379.7613649368, -0.5474, -0.8320,  0.2930, -4.6234, -4.6997, -1.7853
1496545379.7614340782,1496545379.7637169361, -0.5474, -0.8320,  0.2930, -4.6234, -4.6997, -1.7853
1496545379.7637860775,1496545379.7660689354, -0.5474, -0.8320,  0.2930, -4.6234, -4.6997, -1.7853
1496545379.7661380768,1496545379.7684190273, -0.5474, -0.8320,  0.2930, -4.6234, -4.6997, -1.7853
1496545379.7684879303,1496545379.7708919048, -0.5474, -0.8320,  0.2930, -5.0964, -4.4250, -1.2817
1496545379.7709710598,1496545379.7733869553, -0.5461, -0.8345,  0.2854, -5.0964, -4.4250, -1.2817
1496545379.7734580040,1496545379.7758638859, -0.5461, -0.8345,  0.2854, -5.0964, -4.4250, -1.2817
1496545379.7759339809,1496545379.7783389091, -0.5461, -0.8345,  0.2854, -5.0964, -4.4250, -1.2817
1496545379.7784080505,1496545379.7808148861, -0.5461, -0.8345,  0.2854, -5.0964, -3.8910, -1.3428
1496545379.7808849812,1496545379.7831668854, -0.5461, -0.8345,  0.2854, -5.3406, -3.8910, -1.3428
1496545379.7832369804,1496545379.7855160236, -0.5461, -0.8345,  0.2854, -5.3406, -3.8910, -1.3428
1496545379.7855849266,1496545379.7878649235, -0.5461, -0.8345,  0.2854, -5.3406, -3.8910, -1.3428
1496545379.7879340649,1496545379.7902131081, -0.5461, -0.8345,  0.2854, -5.3406, -3.8910, -1.3428
1496545379.7902829647,1496545379.7927210331, -0.5562, -0.8367,  0.2942, -5.3864, -3.7231, -1.2207
1496545379.7927920818,1496545379.7951889038, -0.5562, -0.8367,  0.2942, -5.3864, -3.7231, -1.2207
1496545379.7952589989,1496545379.7976629734, -0.5562, -0.8367,  0.2942, -5.3864, -3.7231, -1.2207
1496545379.7977330685,1496545379.8001360893, -0.5562, -0.8367,  0.2942, -5.3864, -3.7231, -1.2207
1496545379.8002059460,1496545379.8025081158, -0.5562, -0.8367,  0.2942, -4.6844, -3.9215, -0.8850
1496545379.8026940823,1496545379.8049769402, -0.5562, -0.8367,  0.2942, -4.6844, -3.9215, -0.8850
1496545379.8050479889,1496545379.8073239326, -0.5562, -0.8367,  0.2942, -4.6844, -3.9215, -0.8850
1496545379.8073949814,1496545379.8096830845, -0.5562, -0.8367,  0.2942, -4.6844, -3.9215, -0.8850
1496545379.8097529411,1496545379.8121531010, -0.5625, -0.8210,  0.3025, -4.6844, -3.9215, -0.1678
1496545379.8122239113,1496545379.8146278858, -0.5625, -0.8210,  0.3025, -3.9825, -3.3875, -0.1678
1496545379.8146989346,1496545379.8171060085, -0.5625, -0.8210,  0.3025, -3.9825, -3.3875, -0.1678
1496545379.8171770573,1496545379.8195819855, -0.5625, -0.8210,  0.3025, -3.9825, -3.3875, -0.1678
1496545379.8196520805,1496545379.8221030235, -0.5625, -0.8210,  0.3025, -3.9825, -3.3875, -0.1678
1496545379.8221740723,1496545379.8245830536, -0.5625, -0.8210,  0.3025, -4.7455, -2.7161, -0.2441
1496545379.8246529102,1496545379.8271129131, -0.5625, -0.8210,  0.3025, -4.7455, -2.7161, -0.2441
1496545379.8271849155,1496545379.8295979500, -0.5625, -0.8210,  0.3025, -4.7455, -2.7161, -0.2441
1496545379.8296689987,1496545379.8320460320, -0.5425, -0.8308,  0.2866, -4.7455, -2.7161, -0.2441
1496545379.8321180344,1496545379.8343989849, -0.5425, -0.8308,  0.2866, -5.4474, -2.1515, -0.3662
1496545379.8344690800,1496545379.8367578983, -0.5425, -0.8308,  0.2866, -5.4474, -2.1515, -0.3662
1496545379.8368279934,1496545379.8391048908, -0.5425, -0.8308,  0.2866, -5.4474, -2.1515, -0.3662
1496545379.8391749859,1496545379.8415389061, -0.5425, -0.8308,  0.2866, -5.4474, -2.1515, -0.3662
1496545379.8416090012,1496545379.8440189362, -0.5425, -0.8308,  0.2866, -5.4474, -2.1515,  0.0305
1496545379.8440909386,1496545379.8464930058, -0.5425, -0.8308,  0.2866, -5.4779, -1.2970,  0.0305
1496545379.8465640545,1496545379.8489680290, -0.5425, -0.8308,  0.2866, -5.4779, -1.2970,  0.0305
1496545379.8490390778,1496545379.8514850140, -0.5425, -0.8308,  0.2703, -5.4779, -1.2970,  0.0305
1496545379.8515570164,1496545379.8539650440, -0.5396, -0.8315,  0.2703, -5.4779, -1.2970,  0.0305
1496545379.8540360928,1496545379.8564460278, -0.5396, -0.8315,  0.2703, -4.8218, -0.2594, -0.3510
1496545379.8565180302,1496545379.8589220047, -0.5396, -0.8315,  0.2703, -4.8218, -0.2594, -0.3510
1496545379.8589940071,1496545379.8613789082, -0.5396, -0.8315,  0.2703, -4.8218, -0.2594, -0.3510
1496545379.8614509106,1496545379.8637390137, -0.5396, -0.8315,  0.2703, -4.8218, -0.2594, -0.3510
1496545379.8638100624,1496545379.8660919666, -0.5396, -0.8315,  0.2703, -5.2795,  0.5035, -0.7935
1496545379.8661630154,1496545379.8684499264, -0.5396, -0.8315,  0.2703, -5.2795,  0.5035, -0.7935
1496545379.8685219288,1496545379.8709340096, -0.5396, -0.8315,  0.2703, -5.2795,  0.5035, -0.7935
1496545379.8710141182,1496545379.8733079433, -0.5447, -0.8257,  0.2781, -5.2795,  0.5035, -0.7935
1496545379.8733808994,1496545379.8756680489, -0.5447, -0.8257,  0.2781, -5.2795,  0.5035, -1.7395
1496545379.8757390976,1496545379.8780190945, -0.5447, -0.8257,  0.2781, -5.8594,  1.1902, -1.7395
1496545379.8780889511,1496545379.8803689480, -0.5447, -0.8257,  0.2781, -5.8594,  1.1902, -1.7395
1496545379.8804390430,1496545379.8827619553, -0.5447, -0.8257,  0.2781, -5.8594,  1.1902, -1.7395
1496545379.8828320503,1496545379.8851130009, -0.5447, -0.8257,  0.2781, -5.8594,  1.1902, -1.7395
1496545379.8851830959,1496545379.8874680996, -0.5447, -0.8257,  0.2781, -5.7678,  1.8005, -1.8768
1496545379.8875370026,1496545379.8898160458, -0.5447, -0.8257,  0.2781, -5.7678,  1.8005, -1.8768
1496545379.8898859024,1496545379.8922989368, -0.5500, -0.8303,  0.2935, -5.7678,  1.8005, -1.8768
1496545379.8923690319,1496545379.8947839737, -0.5500, -0.8303,  0.2935, -5.7678,  1.8005, -1.8768
1496545379.8948540688,1496545379.8972620964, -0.5500, -0.8303,  0.2935, -5.7678,  1.9989, -1.7090
1496545379.8973329067,1496545379.8997340202, -0.5500, -0.8303,  0.2935, -5.3101,  1.9989, -1.7090
1496545379.8998050690,1496545379.9022219181, -0.5500, -0.8303,  0.2935, -5.3101,  1.9989, -1.7090
1496545379.9022929668,1496545379.9046978951, -0.5500, -0.8303,  0.2935, -5.3101,  1.9989, -1.7090
1496545379.9048810005,1496545379.9072940350, -0.5500, -0.8303,  0.2935, -5.3101,  1.9989, -1.5259
1496545379.9073650837,1496545379.9097669125, -0.5500, -0.8303,  0.2935, -5.6305,  2.5787, -1.5259
1496545379.9098379612,1496545379.9124090672, -0.5544, -0.8247,  0.2939, -5.6305,  2.5787, -1.5259
1496545379.9124810696,1496545379.9147679806, -0.5544, -0.8247,  0.2939, -5.6305,  2.5787, -1.5259
1496545379.9148380756,1496545379.9171180725, -0.5544, -0.8247,  0.2939, -5.6305,  2.5787, -1.5259
1496545379.9171879292,1496545379.9194691181, -0.5544, -0.8247,  0.2939, -5.3253,  2.9907, -1.6174
1496545379.9195380211,1496545379.9219949245, -0.5544, -0.8247,  0.2939, -5.3253,  2.9907, -1.6174
1496545379.9220640659,1496545379.9243469238, -0.5544, -0.8247,  0.2939, -5.3253,  2.9907, -1.6174
1496545379.9244160652,1496545379.9268190861, -0.5544, -0.8247,  0.2939, -5.3253,  2.9907, -1.6174
1496545379.9268879890,1496545379.9291720390, -0.5544, -0.8247,  0.2939, -5.4626,  3.0670, -1.5564
1496545379.9292409420,1496545379.9319009781, -0.5544, -0.8159,  0.2710, -5.4626,  3.0670, -1.5564
1496545379.9319729805,1496545379.9343800545, -0.5630, -0.8159,  0.2710, -5.4626,  3.0670, -1.5564
1496545379.9344511032,1496545379.9368650913, -0.5630, -0.8159,  0.2710, -5.4626,  3.0670, -1.5564
1496545379.9369349480,1496545379.9397759438, -0.5630, -0.8159,  0.2710, -6.2256,  3.6926, -1.4343
1496545379.9398469925,1496545379.9422979355, -0.5630, -0.8159,  0.2710, -6.2256,  3.6926, -1.4343
1496545379.9423680305,1496545379.9447789192, -0.5630, -0.8159,  0.2710, -6.2256,  3.6926, -1.4343
1496545379.9448490143,1496545379.9472579956, -0.5630, -0.8159,  0.2710, -6.2256,  3.6926, -1.4343
1496545379.9473280907,1496545379.9497349262, -0.5630, -0.8159,  0.2710, -6.2256,  3.6926, -1.9226
1496545379.9498050213,1496545379.9522149563, -0.5630, -0.8196,  0.2705, -7.1259,  3.8300, -1.9226
1496545379.9522860050,1496545379.9546959400, -0.5630, -0.8196,  0.2705, -7.1259,  3.8300, -1.9226
1496545379.9547669888,1496545379.9571719170, -0.5630, -0.8196,  0.2705, -7.1259,  3.8300, -1.9226
1496545379.9572429657,1496545379.9596519470, -0.5630, -0.8196,  0.2705, -7.1259,  3.8300, -1.9226
1496545379.9597210884,1496545379.9620709419, -0.5630, -0.8196,  0.2705, -7.8735,  4.0588, -2.1973
1496545379.9621419907,1496545379.9650011063, -0.5630, -0.8196,  0.2705, -7.8735,  4.0588, -2.1973
1496545379.9650740623,1496545379.9673569202, -0.5630, -0.8196,  0.2705, -7.8735,  4.0588, -2.1973
1496545379.9674260616,1496545379.9697079659, -0.5630, -0.8196,  0.2705, -7.8735,  4.0588, -2.1973
1496545379.9697780609,1496545379.9721410275, -0.5723, -0.8208,  0.2852, -8.0261,  4.4861, -2.2736
1496545379.9722139835,1496545379.9746150970, -0.5723, -0.8208,  0.2852, -8.0261,  4.4861, -2.2736
1496545379.9746859074,1496545379.9770989418, -0.5723, -0.8208,  0.2852, -8.0261,  4.4861, -2.2736
1496545379.9771709442,1496545379.9795780182, -0.5723, -0.8208,  0.2852, -8.0261,  4.4861, -2.2736
1496545379.9796490669,1496545379.9821009636, -0.5723, -0.8208,  0.2852, -8.0261,  5.1422, -2.3804
1496545379.9821729660,1496545379.9845809937, -0.5723, -0.8208,  0.2852, -8.0261,  5.1422, -2.3804
1496545379.9846520424,1496545379.9870560169, -0.5723, -0.8208,  0.2852, -8.0261,  5.1422, -2.3804
1496545379.9871280193,1496545379.9895350933, -0.5723, -0.8208,  0.2852, -8.0261,  5.1422, -2.3804
1496545379.9896059036,1496545379.9920260906, -0.5723, -0.8218,  0.2725, -8.0261,  5.1422, -2.3804
1496545379.9920969009,1496545379.9945039749, -0.5725, -0.8218,  0.2725, -9.0485,  5.0659, -2.3804
1496545379.9945750237,1496545379.9969880581, -0.5725, -0.8218,  0.2725, -9.0485,  5.0659, -2.3804
1496545379.9970591068,1496545379.9994668961, -0.5725, -0.8218,  0.2725, -9.0485,  5.0659, -2.3804
1496545379.9995379448,1496545380.0018999577, -0.5725, -0.8218,  0.2725, -9.0485,  5.0659, -2.3804
