timestamp_before,timestamp_after,accel_x,accel_y,accel_z,gyro_x,gyro_y,gryo_z
1496520168.0264589787,1496520168.0287458897, -1.1567,  0.1074, -0.0032,  1.3580, -4.3488, -0.0153
1496520168.0288319588,1496520168.0311141014, -1.1567,  0.1074, -0.0032,  1.3580, -4.3488, -0.0153
1496520168.0311861038,1496520168.0336179733, -1.1567,  0.1074, -0.0032,  1.3580, -4.3488, -0.0153
1496520168.0336899757,1496520168.0359749794, -1.1567,  0.1074, -0.0032,  1.0834, -4.4708,  0.4425
1496520168.0360479355,1496520168.0383319855, -1.1567,  0.1074, -0.0032,  1.0834, -4.4708,  0.4425
1496520168.0384039879,1496520168.0406830311, -1.1567,  0.1074, -0.0032,  1.0834, -4.4708,  0.4425
1496520168.0407559872,1496520168.0430679321, -1.1567,  0.1074, -0.0032,  1.0834, -4.4708,  0.4425
1496520168.0431399345,1496520168.0455129147, -1.1567,  0.1074, -0.0032,  1.0834, -6.2866,  0.0610
1496520168.0455849171,1496520168.0478689671, -1.1582,  0.0950, -0.0039,  0.1068, -6.2866,  0.0610
1496520168.0479431152,1496520168.0502240658, -1.1582,  0.0950, -0.0039,  0.1068, -6.2866,  0.0610
1496520168.0502970219,1496520168.0533509254, -1.1582,  0.0950, -0.0039,  0.1068, -6.2866,  0.0610
1496520168.0534300804,1496520168.0557529926, -1.1582,  0.0950, -0.0039,  0.1068, -6.2866, -0.0458
1496520168.0558259487,1496520168.0581119061, -1.1582,  0.0950, -0.0039, -0.8850, -7.0496, -0.0458
1496520168.0581860542,1496520168.0605010986, -1.1582,  0.0950, -0.0039, -0.8850, -7.0496, -0.0458
1496520168.0605740547,1496520168.0630500317, -1.1582,  0.0950, -0.0039, -0.8850, -7.0496, -0.0458
1496520168.0631320477,1496520168.0655651093, -1.1582,  0.0950, -0.0039, -0.8850, -7.0496, -0.0458
1496520168.0656409264,1496520168.0680460930, -1.1506,  0.0872,  0.0220, -1.0834, -7.5073, -0.2899
1496520168.0681190491,1496520168.0705289841, -1.1506,  0.0872,  0.0220, -1.0834, -7.5073, -0.2899
1496520168.0706000328,1496520168.0730190277, -1.1506,  0.0872,  0.0220, -1.0834, -7.5073, -0.2899
1496520168.0730900764,1496520168.0754990578, -1.1506,  0.0872,  0.0220, -1.0834, -7.5073, -0.2899
1496520168.0755710602,1496520168.0779750347, -1.1506,  0.0872,  0.0220,  0.3662, -7.9956, -1.2054
1496520168.0780470371,1496520168.0804541111, -1.1506,  0.0872,  0.0220,  0.3662, -7.9956, -1.2054
1496520168.0805249214,1496520168.0829210281, -1.1506,  0.0872,  0.0220,  0.3662, -7.9956, -1.2054
1496520168.0829920769,1496520168.0852780342, -1.1506,  0.0872,  0.0220,  0.3662, -7.9956, -1.2054
1496520168.0853490829,1496520168.0876340866, -1.1387,  0.1201, -0.0020,  0.3662, -4.0894, -1.4801
1496520168.0877070427,1496520168.0899930000, -1.1387,  0.1201, -0.0020,  0.9308, -6.9580, -1.4801
1496520168.0900659561,1496520168.0923519135, -1.1387,  0.1201, -0.0020,  0.9308, -6.9580, -1.4801
1496520168.0924239159,1496520168.0947079659, -1.1387,  0.1201, -0.0020,  0.9308, -6.9580, -1.4801
1496520168.0947799683,1496520168.0970680714, -1.1387,  0.1201, -0.0020,  0.9308, -6.9580, -1.4801
1496520168.0971400738,1496520168.0994229317, -1.1387,  0.1201, -0.0020,  1.6479, -6.2256, -1.5259
1496520168.0994930267,1496520168.1017730236, -1.1387,  0.1201, -0.0020,  1.6479, -6.2256, -1.5259
1496520168.1018440723,1496520168.1041390896, -1.1387,  0.1201, -0.0020,  1.6479, -6.2256, -1.5259
1496520168.1042089462,1496520168.1064980030, -1.1387,  0.1201, -0.0020,  1.6479, -6.2256, -1.5259
1496520168.1065690517,1496520168.1092319489, -1.1453,  0.1184, -0.0005,  1.6479, -5.0812, -1.8921
1496520168.1093039513,1496520168.1115939617, -1.1453,  0.1184, -0.0005,  1.5717, -5.0812, -1.8921
1496520168.1116640568,1496520168.1140389442, -1.1453,  0.1184, -0.0005,  1.5717, -5.0812, -1.8921
1496520168.1141099930,1496520168.1165220737, -1.1453,  0.1184, -0.0005,  1.5717, -5.0812, -1.8921
1496520168.1165928841,1496520168.1191539764, -1.1453,  0.1184, -0.0005,  1.5717, -5.0812, -2.3193
1496520168.1192269325,1496520168.1216421127, -1.1453,  0.1184, -0.0005,  1.6327, -4.6997, -2.3193
1496520168.1217141151,1496520168.1241340637, -1.1453,  0.1184, -0.0005,  1.6327, -4.6997, -2.3193
1496520168.1242051125,1496520168.1266129017, -1.1453,  0.1184, -0.0005,  1.6327, -4.6997, -2.3193
1496520168.1266839504,1496520168.1290900707, -1.1406,  0.1316, -0.0176,  1.6327, -4.6997, -2.3193
1496520168.1293060780,1496520168.1317179203, -1.1406,  0.1316, -0.0176,  1.8768, -4.7607, -2.4872
1496520168.1317889690,1496520168.1342051029, -1.1406,  0.1316, -0.0176,  1.8768, -4.7607, -2.4872
1496520168.1342759132,1496520168.1366810799, -1.1406,  0.1316, -0.0176,  1.8768, -4.7607, -2.4872
1496520168.1367509365,1496520168.1391539574, -1.1406,  0.1316, -0.0176,  1.8768, -4.7607, -2.4872
1496520168.1392250061,1496520168.1416299343, -1.1406,  0.1316, -0.0176,  1.1444, -5.3558, -2.5940
1496520168.1417009830,1496520168.1440680027, -1.1406,  0.1316, -0.0176,  1.1444, -5.3558, -2.5940
1496520168.1441380978,1496520168.1464219093, -1.1406,  0.1316, -0.0176,  1.1444, -5.3558, -2.5940
1496520168.1464910507,1496520168.1487760544, -1.1450,  0.1255,  0.0005,  1.1444, -5.3558, -2.5940
1496520168.1488471031,1496520168.1511299610, -1.1450,  0.1255,  0.0005,  1.1444, -5.3558, -2.3499
1496520168.1511991024,1496520168.1535270214, -1.1450,  0.1255,  0.0005, -0.6256, -5.8746, -2.3499
1496520168.1535990238,1496520168.1563200951, -1.1450,  0.1255,  0.0005, -0.6256, -5.8746, -2.3499
1496520168.1563940048,1496520168.1586771011, -1.1450,  0.1255,  0.0005, -0.6256, -5.8746, -2.3499
1496520168.1587469578,1496520168.1610329151, -1.1450,  0.1255,  0.0005, -0.6256, -5.8746, -2.3499
1496520168.1611039639,1496520168.1634409428, -1.1450,  0.1255,  0.0005, -0.6409, -6.5613, -2.5482
1496520168.1635150909,1496520168.1659328938, -1.1450,  0.1255,  0.0005, -0.6409, -6.5613, -2.5482
1496520168.1660048962,1496520168.1684129238, -1.1660,  0.0935,  0.0120, -0.6409, -6.5613, -2.5482
1496520168.1684839725,1496520168.1708929539, -1.1660,  0.0935,  0.0120, -0.6409, -6.5613, -2.5482
1496520168.1709640026,1496520168.1733899117, -1.1660,  0.0935,  0.0120, -0.1373, -6.2103, -2.7161
1496520168.1734619141,1496520168.1758680344, -1.1660,  0.0935,  0.0120, -0.1373, -6.2103, -2.7161
1496520168.1759390831,1496520168.1783490181, -1.1660,  0.0935,  0.0120, -0.1373, -6.2103, -2.7161
1496520168.1784200668,1496520168.1808280945, -1.1660,  0.0935,  0.0120, -0.1373, -6.2103, -2.7161
1496520168.1809000969,1496520168.1833240986, -1.1660,  0.0935,  0.0120,  1.0071, -5.9662, -2.4109
1496520168.1833939552,1496520168.1856820583, -1.1660,  0.0935,  0.0120,  1.0071, -5.9662, -2.4109
1496520168.1857509613,1496520168.1880340576, -1.1636,  0.0857,  0.0020,  1.0071, -5.9662, -2.4109
1496520168.1881051064,1496520168.1903910637, -1.1636,  0.0857,  0.0020,  1.0071, -5.9662, -2.4109
1496520168.1904621124,1496520168.1927809715, -1.1636,  0.0857,  0.0020,  1.0071, -5.9662, -2.4109
1496520168.1928520203,1496520168.1951329708, -1.1636,  0.0857,  0.0020,  3.5553, -5.7068, -2.4872
1496520168.1952030659,1496520168.1974871159, -1.1636,  0.0857,  0.0020,  3.5553, -5.7068, -2.4872
1496520168.1975569725,1496520168.1998488903, -1.1636,  0.0857,  0.0020,  3.5553, -5.7068, -2.4872
1496520168.1999189854,1496520168.2022039890, -1.1636,  0.0857,  0.0020,  3.5553, -5.7068, -2.4872
1496520168.2022740841,1496520168.2046039104, -1.1636,  0.0857,  0.0020,  6.6833, -5.7526, -1.9531
1496520168.2046749592,1496520168.2069571018, -1.1636,  0.0857,  0.0232,  6.6833, -5.7526, -1.9531
1496520168.2070269585,1496520168.2093110085, -1.1479,  0.0825,  0.0232,  6.6833, -5.7526, -1.9531
1496520168.2093811035,1496520168.2116689682, -1.1479,  0.0825,  0.0232,  6.6833, -5.7526, -1.9531
1496520168.2117390633,1496520168.2141840458, -1.1479,  0.0825,  0.0232,  6.6833, -5.7526, -1.6022
1496520168.2142529488,1496520168.2165329456, -1.1479,  0.0825,  0.0232,  9.2621, -5.7220, -1.6022
1496520168.2166039944,1496520168.2188920975, -1.1479,  0.0825,  0.0232,  9.2621, -5.7220, -1.6022
1496520168.2189619541,1496520168.2212491035, -1.1479,  0.0825,  0.0232,  9.2621, -5.7220, -1.6022
1496520168.2213180065,1496520168.2236959934, -1.1479,  0.0825,  0.0232,  9.2621, -5.7220, -1.6022
1496520168.2237670422,1496520168.2261750698, -1.1479,  0.0825,  0.0232, 11.1237, -5.9509, -1.1902
1496520168.2262499332,1496520168.2286610603, -1.1431,  0.1038,  0.0017, 11.1237, -5.9509, -1.1902
1496520168.2288560867,1496520168.2312719822, -1.1431,  0.1038,  0.0017, 11.1237, -5.9509, -1.1902
1496520168.2313480377,1496520168.2337720394, -1.1431,  0.1038,  0.0017, 11.1237, -5.9509, -1.1902
1496520168.2338469028,1496520168.2362530231, -1.1431,  0.1038,  0.0017, 12.5885, -5.8289, -0.9613
1496520168.2363290787,1496520168.2387409210, -1.1431,  0.1038,  0.0017, 12.5885, -5.8289, -0.9613
1496520168.2388169765,1496520168.2412300110, -1.1431,  0.1038,  0.0017, 12.5885, -5.8289, -0.9613
1496520168.2413070202,1496520168.2437329292, -1.1431,  0.1038,  0.0017, 12.5885, -5.8289, -0.9613
1496520168.2438089848,1496520168.2462139130, -1.1431,  0.1038,  0.0017, 12.5885, -5.8289, -0.0305
1496520168.2462909222,1496520168.2486898899, -1.1550,  0.0916,  0.0129, 13.2751, -6.2103, -0.0305
1496520168.2487649918,1496520168.2511789799, -1.1550,  0.0916,  0.0129, 13.2751, -6.2103, -0.0305
1496520168.2512540817,1496520168.2536079884, -1.1550,  0.0916,  0.0129, 13.2751, -6.2103, -0.0305
1496520168.2536830902,1496520168.2561368942, -1.1550,  0.0916,  0.0129, 13.2751, -6.2103, -0.0305
1496520168.2562119961,1496520168.2584989071, -1.1550,  0.0916,  0.0129, 14.1144, -6.9733,  0.4425
1496520168.2585749626,1496520168.2608580589, -1.1550,  0.0916,  0.0129, 14.1144, -6.9733,  0.4425
1496520168.2609329224,1496520168.2633180618, -1.1550,  0.0916,  0.0129, 14.1144, -6.9733,  0.4425
1496520168.2633929253,1496520168.2657639980, -1.1550,  0.0916,  0.0129, 14.1144, -6.9733,  0.4425
1496520168.2658379078,1496520168.2687780857, -1.1511,  0.0586,  0.0312, 17.3187, -7.2327,  0.7935
1496520168.2688560486,1496520168.2712609768, -1.1511,  0.0586,  0.0312, 17.3187, -7.2327,  0.7935
1496520168.2713370323,1496520168.2737300396, -1.1511,  0.0586,  0.0312, 17.3187, -7.2327,  0.7935
1496520168.2738049030,1496520168.2761769295, -1.1511,  0.0586,  0.0312, 17.3187, -7.2327,  0.7935
1496520168.2762520313,1496520168.2786231041, -1.1511,  0.0586,  0.0312, 22.7203, -8.5144,  0.9766
1496520168.2786979675,1496520168.2810680866, -1.1511,  0.0586,  0.0312, 22.7203, -8.5144,  0.9766
1496520168.2811439037,1496520168.2835619450, -1.1511,  0.0586,  0.0312, 22.7203, -8.5144,  0.9766
1496520168.2836380005,1496520168.2860479355, -1.1511,  0.0586,  0.0312, 22.7203, -8.5144,  0.9766
1496520168.2861230373,1496520168.2885329723, -1.1392,  0.0640,  0.0132, 22.7203, -8.5144,  0.7629
1496520168.2886080742,1496520168.2910170555, -1.1392,  0.0640,  0.0132, 28.3356, -9.3231,  0.7629
1496520168.2910919189,1496520168.2935900688, -1.1392,  0.0640,  0.0132, 28.3356, -9.3231,  0.7629
1496520168.2936658859,1496520168.2960739136, -1.1392,  0.0640,  0.0132, 28.3356, -9.3231,  0.7629
1496520168.2961490154,1496520168.2985579967, -1.1392,  0.0640,  0.0132, 28.3356, -9.3231,  0.7629
1496520168.2986330986,1496520168.3010389805, -1.1392,  0.0640,  0.0132, 33.7524,-10.0403,  0.7782
1496520168.3011190891,1496520168.3034880161, -1.1392,  0.0640,  0.0132, 33.7524,-10.0403,  0.7782
1496520168.3035669327,1496520168.3058509827, -1.1392,  0.0640,  0.0132, 33.7524,-10.0403,  0.7782
1496520168.3059279919,1496520168.3082149029, -1.1426,  0.0994,  0.0291, 33.7524,-10.0403,  0.7782
1496520168.3082919121,1496520168.3105769157, -1.1426,  0.0994,  0.0291, 39.0320,-11.4441,  0.3662
1496520168.3106539249,1496520168.3130800724, -1.1426,  0.0994,  0.0291, 39.0320,-11.4441,  0.3662
1496520168.3131589890,1496520168.3154499531, -1.1426,  0.0994,  0.0291, 39.0320,-11.4441,  0.3662
1496520168.3155269623,1496520168.3178129196, -1.1426,  0.0994,  0.0291, 39.0320,-11.4441,  0.3662
1496520168.3178899288,1496520168.3201739788, -1.1426,  0.0994,  0.0291, 39.0320,-15.3503,  0.1068
1496520168.3202528954,1496520168.3226740360, -1.1426,  0.0994,  0.0291, 43.5638,-12.3291,  0.1068
1496520168.3227519989,1496520168.3251640797, -1.1426,  0.0994,  0.0291, 43.5638,-12.3291,  0.1068
1496520168.3252429962,1496520168.3276491165, -1.1426,  0.1338,  0.0308, 43.5638,-12.3291,  0.1068
1496520168.3277258873,1496520168.3301339149, -1.1289,  0.1338,  0.0308, 43.5638,-12.3291,  0.1068
1496520168.3302121162,1496520168.3326261044, -1.1289,  0.1338,  0.0308, 45.5780,-11.9476,  0.1373
1496520168.3328220844,1496520168.3352351189, -1.1289,  0.1338,  0.0308, 45.5780,-11.9476,  0.1373
1496520168.3353118896,1496520168.3377211094, -1.1289,  0.1338,  0.0308, 45.5780,-11.9476,  0.1373
1496520168.3377990723,1496520168.3402090073, -1.1289,  0.1338,  0.0308, 45.5780,-11.9476,  0.1373
1496520168.3402869701,1496520168.3427391052, -1.1289,  0.1338,  0.0308, 46.2189,-11.7340, -0.1068
1496520168.3428170681,1496520168.3452219963, -1.1289,  0.1338,  0.0308, 46.2189,-11.7340, -0.1068
1496520168.3453009129,1496520168.3477070332, -1.1289,  0.1777,  0.0225, 46.2189,-11.7340, -0.1068
1496520168.3477859497,1496520168.3501958847, -1.1189,  0.1777,  0.0225, 46.2189,-11.7340, -0.1068
1496520168.3502740860,1496520168.3527169228, -1.1189,  0.1777,  0.0225, 44.6472,-11.9324, -0.3204
1496520168.3527948856,1496520168.3550820351, -1.1189,  0.1777,  0.0225, 44.6472,-11.9324, -0.3204
1496520168.3551590443,1496520168.3574409485, -1.1189,  0.1777,  0.0225, 44.6472,-11.9324, -0.3204
1496520168.3575170040,1496520168.3598020077, -1.1189,  0.1777,  0.0225, 44.6472,-11.9324, -0.3204
1496520168.3598790169,1496520168.3621571064, -1.1189,  0.1777,  0.0225, 44.6472,-11.9324, -0.5493
1496520168.3622341156,1496520168.3646221161, -1.1189,  0.1777,  0.0225, 41.9922,-12.0697, -0.5493
1496520168.3647000790,1496520168.3670930862, -1.1189,  0.1777,  0.0225, 41.9922,-12.0697, -0.5493
1496520168.3671710491,1496520168.3695669174, -1.1377,  0.1685,  0.0144, 41.9922,-12.0697, -0.5493
1496520168.3696451187,1496520168.3720390797, -1.1377,  0.1685,  0.0144, 41.9922,-12.0697, -0.5493
1496520168.3721160889,1496520168.3745019436, -1.1377,  0.1685,  0.0144, 40.3137,-12.2375, -0.5035
1496520168.3745810986,1496520168.3769509792, -1.1377,  0.1685,  0.0144, 40.3137,-12.2375, -0.5035
1496520168.3770279884,1496520168.3794960976, -1.1377,  0.1685,  0.0144, 40.3137,-12.2375, -0.5035
1496520168.3795740604,1496520168.3819510937, -1.1377,  0.1685,  0.0144, 40.3137,-12.2375, -0.5035
1496520168.3820281029,1496520168.3844380379, -1.1377,  0.1685,  0.0144, 39.6729,-13.5040, -0.6409
1496520168.3845169544,1496520168.3869290352, -1.1377,  0.1685,  0.0144, 39.6729,-13.5040, -0.6409
1496520168.3870069981,1496520168.3894131184, -1.1538,  0.1152,  0.0562, 39.6729,-13.5040, -0.6409
1496520168.3894920349,1496520168.3919000626, -1.1538,  0.1152,  0.0562, 39.6729,-13.5040, -0.6409
1496520168.3919780254,1496520168.3943989277, -1.1538,  0.1152,  0.0562, 39.6729,-15.9607, -0.4883
1496520168.3944780827,1496520168.3968849182, -1.1538,  0.1152,  0.0562, 41.8854,-15.9607, -0.4883
1496520168.3969640732,1496520168.3993690014, -1.1538,  0.1152,  0.0562, 41.8854,-15.9607, -0.4883
1496520168.3994479179,1496520168.4018590450, -1.1538,  0.1152,  0.0562, 41.8854,-15.9607, -0.4883
1496520168.4019379616,1496520168.4042639732, -1.1538,  0.1152,  0.0562, 41.8854,-15.9607, -0.4883
1496520168.4043428898,1496520168.4066300392, -1.1538,  0.1152,  0.0562, 47.0734,-18.0054, -1.0529
1496520168.4067070484,1496520168.4089910984, -1.1506,  0.0840,  0.0713, 47.0734,-18.0054, -1.0529
1496520168.4090681076,1496520168.4113509655, -1.1506,  0.0840,  0.0713, 47.0734,-18.0054, -1.0529
1496520168.4114270210,1496520168.4137270451, -1.1506,  0.0840,  0.0713, 47.0734,-18.0054, -1.0529
1496520168.4138050079,1496520168.4160869122, -1.1506,  0.0840,  0.0713, 54.6875,-20.7062, -1.5564
1496520168.4161639214,1496520168.4184401035, -1.1506,  0.0840,  0.0713, 54.6875,-20.7062, -1.5564
1496520168.4185180664,1496520168.4208068848, -1.1506,  0.0840,  0.0713, 54.6875,-20.7062, -1.5564
1496520168.4208838940,1496520168.4234740734, -1.1506,  0.0840,  0.0713, 54.6875,-20.7062, -1.5564
1496520168.4235510826,1496520168.4258399010, -1.1506,  0.0840,  0.0713, 54.6875,-20.7062, -2.5635
1496520168.4259169102,1496520168.4282050133, -1.1257,  0.1365,  0.0779, 61.7218,-22.1558, -2.5635
1496520168.4282810688,1496520168.4305589199, -1.1257,  0.1365,  0.0779, 61.7218,-22.1558, -2.5635
1496520168.4306359291,1496520168.4330639839, -1.1257,  0.1365,  0.0779, 61.7218,-22.1558, -2.5635
1496520168.4331409931,1496520168.4354290962, -1.1257,  0.1365,  0.0779, 61.7218,-22.1558, -2.5635
1496520168.4356389046,1496520168.4380359650, -1.1257,  0.1365,  0.0779, 66.6351,-23.0255, -3.1281
1496520168.4381160736,1496520168.4404029846, -1.1257,  0.1365,  0.0779, 66.6351,-23.0255, -3.1281
1496520168.4404790401,1496520168.4427850246, -1.1257,  0.1365,  0.0779, 66.6351,-23.0255, -3.1281
1496520168.4428629875,1496520168.4452750683, -1.1257,  0.1365,  0.0779, 66.6351,-23.0255, -3.1281
1496520168.4453530312,1496520168.4477550983, -1.1257,  0.1990,  0.1179, 67.8711,-24.6735, -3.8147
1496520168.4478330612,1496520168.4502649307, -1.1152,  0.2056,  0.1179, 67.8711,-24.6735, -3.8147
1496520168.4503428936,1496520168.4527549744, -1.1152,  0.2056,  0.1179, 67.8711,-24.6735, -3.8147
1496520168.4528329372,1496520168.4551138878, -1.1152,  0.2056,  0.1179, 67.8711,-24.6735, -3.8147
1496520168.4551908970,1496520168.4576089382, -1.1152,  0.2056,  0.1179, 67.8711,-24.6735, -4.4403
1496520168.4576880932,1496520168.4600009918, -1.1152,  0.2056,  0.1179, 64.3768,-26.8555, -4.4403
1496520168.4600780010,1496520168.4623630047, -1.1152,  0.2056,  0.1179, 64.3768,-26.8555, -4.4403
1496520168.4624400139,1496520168.4648549557, -1.1152,  0.2056,  0.1179, 64.3768,-26.8555, -4.4403
1496520168.4649329185,1496520168.4673418999, -1.1152,  0.2056,  0.1804, 64.3768,-26.8555, -4.4403
1496520168.4674201012,1496520168.4698290825, -1.1003,  0.2361,  0.1650, 60.6232,-28.6713, -4.8523
1496520168.4699060917,1496520168.4723110199, -1.1003,  0.2361,  0.1650, 60.6232,-28.6713, -4.8523
1496520168.4723880291,1496520168.4748079777, -1.1003,  0.2361,  0.1650, 60.6232,-28.6713, -4.8523
1496520168.4748859406,1496520168.4772861004, -1.1003,  0.2361,  0.1650, 60.6232,-28.6713, -4.8523
1496520168.4773640633,1496520168.4797780514, -1.1003,  0.2361,  0.1650, 54.1992,-28.5797, -4.6997
1496520168.4798560143,1496520168.4822599888, -1.1003,  0.2361,  0.1650, 54.1992,-28.5797, -4.6997
1496520168.4823360443,1496520168.4847540855, -1.1003,  0.2361,  0.1650, 54.1992,-28.5797, -4.6997
1496520168.4848310947,1496520168.4874780178, -1.1003,  0.2361,  0.1025, 54.1992,-28.5797, -4.6997
1496520168.4875569344,1496520168.4901089668, -1.0881,  0.2739,  0.1055, 47.0123,-28.3203, -4.3640
1496520168.4901878834,1496520168.4927549362, -1.0881,  0.2739,  0.1055, 47.0123,-28.3203, -4.3640
1496520168.4928340912,1496520168.4952380657, -1.0881,  0.2739,  0.1055, 47.0123,-28.3203, -4.3640
1496520168.4953150749,1496520168.4977281094, -1.0881,  0.2739,  0.1055, 47.0123,-28.3203, -4.3640
1496520168.4978060722,1496520168.5002110004, -1.0881,  0.2739,  0.1055, 39.1998,-28.1525, -4.3945
1496520168.5002889633,1496520168.5027360916, -1.0881,  0.2739,  0.1055, 42.3584,-28.1525, -4.3945
1496520168.5028131008,1496520168.5051069260, -1.0881,  0.2739,  0.1055, 42.3584,-28.1525, -4.3945
1496520168.5051839352,1496520168.5074698925, -1.0881,  0.2739, -0.0269, 42.3584,-28.1525, -4.3945
1496520168.5075469017,1496520168.5098299980, -1.0857,  0.1970, -0.0269, 42.3584,-28.1525, -4.3945
1496520168.5099070072,1496520168.5121960640, -1.0857,  0.1970, -0.0269, 42.9993,-27.9999, -5.1270
1496520168.5122740269,1496520168.5147190094, -1.0857,  0.1970, -0.0269, 42.9993,-27.9999, -5.1270
1496520168.5147969723,1496520168.5172109604, -1.0857,  0.1970, -0.0269, 42.9993,-27.9999, -5.1270
1496520168.5172879696,1496520168.5196928978, -1.0857,  0.1970, -0.0269, 42.9993,-27.9999, -5.1270
1496520168.5197699070,1496520168.5221779346, -1.0857,  0.1970, -0.0269, 45.1355,-27.6337, -5.8899
1496520168.5222549438,1496520168.5245590210, -1.0857,  0.1970, -0.0269, 45.1355,-27.6337, -5.8899
1496520168.5246369839,1496520168.5269210339, -1.0857,  0.1970, -0.0269, 45.1355,-27.6337, -5.8899
1496520168.5269980431,1496520168.5292809010, -1.1077,  0.2197, -0.1755, 45.1355,-27.6337, -5.8899
1496520168.5293579102,1496520168.5316450596, -1.1077,  0.2197, -0.1755, 45.1355,-23.7274, -6.7139
1496520168.5317211151,1496520168.5341670513, -1.1077,  0.2197, -0.1755, 45.5322,-25.0397, -6.7139
1496520168.5342419147,1496520168.5365281105, -1.1077,  0.2197, -0.1755, 45.5322,-25.0397, -6.7139
1496520168.5366048813,1496520168.5388898849, -1.1077,  0.2197, -0.1755, 45.5322,-25.0397, -6.7139
1496520168.5390961170,1496520168.5413808823, -1.1077,  0.2197, -0.1755, 45.5322,-25.0397, -6.7139
1496520168.5414578915,1496520168.5440840721, -1.1077,  0.2197, -0.1755, 42.4957,-21.8506, -7.6294
1496520168.5441620350,1496520168.5465741158, -1.1077,  0.2197, -0.1755, 42.4957,-21.8506, -7.6294
1496520168.5466508865,1496520168.5490560532, -1.1926,  0.2439, -0.2639, 42.4957,-21.8506, -7.6294
1496520168.5491330624,1496520168.5515439510, -1.1926,  0.2439, -0.2639, 42.4957,-21.8506, -7.6294
1496520168.5516200066,1496520168.5539689064, -1.1926,  0.2439, -0.2639, 36.6364,-20.2026, -8.4381
1496520168.5540471077,1496520168.5563340187, -1.1926,  0.2439, -0.2639, 36.6364,-20.2026, -8.4381
1496520168.5564100742,1496520168.5586891174, -1.1926,  0.2439, -0.2639, 36.6364,-20.2026, -8.4381
1496520168.5587649345,1496520168.5610470772, -1.1926,  0.2439, -0.2639, 36.6364,-20.2026, -8.4381
1496520168.5611240864,1496520168.5634179115, -1.1926,  0.2439, -0.2639, 36.6364,-18.3258, -8.2092
1496520168.5634949207,1496520168.5657761097, -1.1926,  0.2439, -0.2639, 30.3802,-18.3258, -8.2092
1496520168.5658531189,1496520168.5681319237, -1.1926,  0.1960, -0.2383, 30.3802,-18.3258, -8.2092
1496520168.5682079792,1496520168.5704989433, -1.2251,  0.1960, -0.2383, 30.3802,-18.3258, -8.2092
1496520168.5705749989,1496520168.5729169846, -1.2251,  0.1960, -0.2383, 30.3802,-18.3258, -8.2092
1496520168.5729949474,1496520168.5754029751, -1.2251,  0.1960, -0.2383, 23.9258,-17.4561, -7.8888
1496520168.5754790306,1496520168.5778849125, -1.2251,  0.1960, -0.2383, 23.9258,-17.4561, -7.8888
1496520168.5779619217,1496520168.5803670883, -1.2251,  0.1960, -0.2383, 23.9258,-17.4561, -7.8888
1496520168.5804440975,1496520168.5828559399, -1.2251,  0.1960, -0.2383, 23.9258,-17.4561, -7.8888
1496520168.5829329491,1496520168.5853400230, -1.2251,  0.1960, -0.2383, 19.6533,-17.1051, -7.9041
1496520168.5854170322,1496520168.5878179073, -1.2251,  0.1960, -0.1299, 19.6533,-17.1051, -7.9041
1496520168.5878949165,1496520168.5903050900, -1.2236,  0.1084, -0.1299, 19.6533,-17.1051, -7.9041
1496520168.5903840065,1496520168.5928030014, -1.2236,  0.1084, -0.1299, 19.6533,-17.1051, -7.9041
1496520168.5928809643,1496520168.5952889919, -1.2236,  0.1084, -0.1299, 19.6533,-16.9525, -8.2855
1496520168.5953650475,1496520168.5977740288, -1.2236,  0.1084, -0.1299, 16.6473,-16.9525, -8.2855
1496520168.5978519917,1496520168.6002590656, -1.2236,  0.1084, -0.1299, 16.6473,-16.9525, -8.2855
1496520168.6003360748,1496520168.6027541161, -1.2236,  0.1084, -0.1299, 16.6473,-16.9525, -8.2855
1496520168.6028308868,1496520168.6052339077, -1.2236,  0.1084, -0.1299, 16.6473,-16.9525, -7.8430
1496520168.6053109169,1496520168.6077170372, -1.2236,  0.1084, -0.0381, 14.4806,-17.0593, -7.8430
1496520168.6077940464,1496520168.6102039814, -1.1846,  0.1069, -0.0381, 14.4806,-17.0593, -7.8430
1496520168.6102819443,1496520168.6127231121, -1.1846,  0.1069, -0.0381, 14.4806,-17.0593, -7.8430
1496520168.6128010750,1496520168.6150879860, -1.1846,  0.1069, -0.0381, 14.4806,-17.0593, -7.8430
1496520168.6151659489,1496520168.6174499989, -1.1846,  0.1069, -0.0381, 16.4032,-16.5558, -7.6752
1496520168.6175270081,1496520168.6198110580, -1.1846,  0.1069, -0.0381, 16.4032,-16.5558, -7.6752
1496520168.6198880672,1496520168.6221749783, -1.1846,  0.1069, -0.0381, 16.4032,-16.5558, -7.6752
1496520168.6222519875,1496520168.6246531010, -1.1846,  0.1069, -0.0381, 16.4032,-16.5558, -7.6752
1496520168.6247301102,1496520168.6271328926, -1.1846,  0.1069, -0.0381, 16.4032,-15.5945, -7.2937
1496520168.6272099018,1496520168.6296200752, -1.1538,  0.1963,  0.0173, 17.7612,-15.5945, -7.2937
1496520168.6296970844,1496520168.6321010590, -1.1538,  0.1963,  0.0173, 17.7612,-15.5945, -7.2937
1496520168.6321790218,1496520168.6345999241, -1.1538,  0.1963,  0.0173, 17.7612,-15.5945, -7.2937
1496520168.6346769333,1496520168.6370809078, -1.1538,  0.1963,  0.0173, 17.7612,-15.5945, -7.4310
1496520168.6371569633,1496520168.6395549774, -1.1538,  0.1963,  0.0173, 16.3422,-15.0452, -7.4310
1496520168.6397390366,1496520168.6421499252, -1.1538,  0.1963,  0.0173, 16.3422,-15.0452, -7.4310
1496520168.6422269344,1496520168.6446399689, -1.1538,  0.1963,  0.0173, 16.3422,-15.0452, -7.4310
1496520168.6447169781,1496520168.6471240520, -1.1538,  0.1963,  0.0173, 16.3422,-15.0452, -7.4310
1496520168.6472010612,1496520168.6496160030, -1.1296,  0.1804,  0.0713, 13.5498,-14.5569, -8.1635
1496520168.6496930122,1496520168.6521000862, -1.1296,  0.1804,  0.0713, 13.5498,-14.5569, -8.1635
1496520168.6521770954,1496520168.6546010971, -1.1296,  0.1804,  0.0713, 13.5498,-14.5569, -8.1635
1496520168.6546790600,1496520168.6570870876, -1.1296,  0.1804,  0.0713, 13.5498,-14.5569, -8.1635
1496520168.6571640968,1496520168.6595690250, -1.1296,  0.1804,  0.0713, 12.1918,-14.3890, -8.9111
1496520168.6596450806,1496520168.6620569229, -1.1296,  0.1804,  0.0713, 12.1918,-14.3890, -8.9111
1496520168.6621339321,1496520168.6644480228, -1.1296,  0.1804,  0.0713, 12.1918,-14.3890, -8.9111
1496520168.6645250320,1496520168.6668119431, -1.1296,  0.1804,  0.0713, 12.1918,-14.3890, -8.9111
1496520168.6668889523,1496520168.6691799164, -1.1157,  0.2012,  0.1003, 12.1918,-13.5956, -9.2773
1496520168.6692559719,1496520168.6715428829, -1.1157,  0.2012,  0.1003, 10.1318,-13.5956, -9.2773
1496520168.6716198921,1496520168.6740019321, -1.1157,  0.2012,  0.1003, 10.1318,-13.5956, -9.2773
1496520168.6740798950,1496520168.6764850616, -1.1157,  0.2012,  0.1003, 10.1318,-13.5956, -9.2773
1496520168.6765620708,1496520168.6789710522, -1.1157,  0.2012,  0.1003, 10.1318,-13.5956, -9.2773
1496520168.6790480614,1496520168.6814548969, -1.1157,  0.2012,  0.1003,  8.3923,-13.5193, -9.8114
1496520168.6815299988,1496520168.6839489937, -1.1157,  0.2012,  0.1003,  8.3923,-13.5193, -9.8114
1496520168.6840250492,1496520168.6864309311, -1.1157,  0.2012,  0.1003,  8.3923,-13.5193, -9.8114
1496520168.6865060329,1496520168.6889169216, -1.1177,  0.2356,  0.0933,  8.3923,-13.5193, -9.8114
1496520168.6889920235,1496520168.6914029121, -1.1177,  0.2356,  0.0933,  6.7902,-12.6190,-10.8643
1496520168.6914789677,1496520168.6939411163, -1.1177,  0.2356,  0.0933,  6.7902,-12.6190,-10.8643
1496520168.6940159798,1496520168.6964230537, -1.1177,  0.2356,  0.0933,  6.7902,-12.6190,-10.8643
1496520168.6964991093,1496520168.6989018917, -1.1177,  0.2356,  0.0933,  6.7902,-12.6190,-10.8643
1496520168.6989779472,1496520168.7013900280, -1.1177,  0.2356,  0.0933,  5.3558,-12.4664,-12.2223
1496520168.7014660835,1496520168.7039229870, -1.1177,  0.2356,  0.0933,  5.3558,-12.4664,-12.2223
1496520168.7039990425,1496520168.7064049244, -1.1177,  0.2356,  0.0933,  5.3558,-12.4664,-12.2223
1496520168.7064809799,1496520168.7088971138, -1.1221,  0.2021,  0.1111,  5.3558,-12.4664,-12.2223
1496520168.7089729309,1496520168.7113790512, -1.1221,  0.2021,  0.1111,  5.3558,-12.4664,-13.7177
1496520168.7114551067,1496520168.7137999535, -1.1221,  0.2021,  0.1111,  4.5319,-12.0087,-13.7177
1496520168.7138779163,1496520168.7161569595, -1.1221,  0.2021,  0.1111,  4.5319,-12.0087,-13.7177
1496520168.7162339687,1496520168.7185111046, -1.1221,  0.2021,  0.1111,  4.5319,-12.0087,-13.7177
1496520168.7185869217,1496520168.7208750248, -1.1221,  0.2021,  0.1111,  4.5319,-12.0087,-13.7177
1496520168.7209510803,1496520168.7233259678, -1.1221,  0.2021,  0.1111,  4.4708,-11.7188,-14.7095
1496520168.7234029770,1496520168.7258019447, -1.1221,  0.2021,  0.1111,  4.4708,-11.7188,-14.7095
1496520168.7258789539,1496520168.7282960415, -1.1221,  0.2021,  0.0862,  4.4708,-11.7188,-14.7095
1496520168.7283720970,1496520168.7307751179, -1.1262,  0.1956,  0.0862,  4.4708,-11.7188,-14.7095
1496520168.7308509350,1496520168.7332661152, -1.1262,  0.1956,  0.0862,  3.2196,-11.1542,-14.8773
1496520168.7333428860,1496520168.7357459068, -1.1262,  0.1956,  0.0862,  3.2196,-11.1542,-14.8773
1496520168.7358229160,1496520168.7382280827, -1.1262,  0.1956,  0.0862,  3.2196,-11.1542,-14.8773
1496520168.7383050919,1496520168.7407140732, -1.1262,  0.1956,  0.0862,  3.2196,-11.1542,-14.8773
1496520168.7407889366,1496520168.7432019711, -1.1262,  0.1956,  0.0862,  3.2196,-10.6812,-15.6250
1496520168.7433879375,1496520168.7457990646, -1.1262,  0.1956,  0.0862,  0.7629,-10.6812,-15.6250
1496520168.7458748817,1496520168.7482841015, -1.1262,  0.1956,  0.0901,  0.7629,-10.6812,-15.6250
1496520168.7483611107,1496520168.7507688999, -1.1321,  0.2021,  0.0901,  0.7629,-10.6812,-15.6250
1496520168.7508459091,1496520168.7532589436, -1.1321,  0.2021,  0.0901,  0.7629,-10.6812,-16.7694
1496520168.7533359528,1496520168.7557408810, -1.1321,  0.2021,  0.0901, -0.3815, -9.5215,-16.7694
1496520168.7558159828,1496520168.7582199574, -1.1321,  0.2021,  0.0901, -0.3815, -9.5215,-16.7694
1496520168.7582969666,1496520168.7607069016, -1.1321,  0.2021,  0.0901, -0.3815, -9.5215,-16.7694
1496520168.7607829571,1496520168.7631731033, -1.1321,  0.2021,  0.0901, -0.3815, -9.5215,-16.7694
1496520168.7632479668,1496520168.7655329704, -1.1321,  0.2021,  0.0901, -2.4109, -9.0027,-17.7765
1496520168.7656071186,1496520168.7678909302, -1.1321,  0.2021,  0.0928, -2.4109, -9.0027,-17.7765
1496520168.7679660320,1496520168.7702450752, -1.1328,  0.1875,  0.0928, -2.4109, -9.0027,-17.7765
1496520168.7703189850,1496520168.7726140022, -1.1328,  0.1875,  0.0928, -2.4109, -9.0027,-17.7765
1496520168.7726879120,1496520168.7750899792, -1.1328,  0.1875,  0.0928, -6.3171, -8.3923,-18.8141
1496520168.7751660347,1496520168.7775700092, -1.1328,  0.1875,  0.0928, -4.2572, -8.3923,-18.8141
1496520168.7776451111,1496520168.7800509930, -1.1328,  0.1875,  0.0928, -4.2572, -8.3923,-18.8141
1496520168.7801260948,1496520168.7825369835, -1.1328,  0.1875,  0.0928, -4.2572, -8.3923,-18.8141
1496520168.7826120853,1496520168.7850179672, -1.1328,  0.1875,  0.0928, -4.2572, -8.3923,-19.6075
1496520168.7850921154,1496520168.7875039577, -1.1328,  0.1875,  0.0928, -5.6915, -7.8735,-19.6075
1496520168.7875781059,1496520168.7899820805, -1.1230,  0.1658,  0.1128, -5.6915, -7.8735,-19.6075
1496520168.7900569439,1496520168.7924709320, -1.1230,  0.1658,  0.1128, -5.6915, -7.8735,-19.6075
1496520168.7925930023,1496520168.7950088978, -1.1230,  0.1658,  0.1128, -5.6915, -7.8735,-19.6075
1496520168.7950830460,1496520168.7974929810, -1.1230,  0.1658,  0.1128, -6.0577, -7.4768,-20.5383
1496520168.7975668907,1496520168.7999789715, -1.1230,  0.1658,  0.1128, -6.0577, -7.4768,-20.5383
1496520168.8000519276,1496520168.8024621010, -1.1230,  0.1658,  0.1128, -6.0577, -7.4768,-20.5383
1496520168.8025929928,1496520168.8050010204, -1.1230,  0.1658,  0.1128, -6.0577, -7.4768,-20.5383
1496520168.8050749302,1496520168.8074870110, -1.1230,  0.1658,  0.1128, -6.8817, -7.3700,-21.0876
1496520168.8075609207,1496520168.8099689484, -1.1323,  0.1450,  0.0864, -6.8817, -7.3700,-21.0876
1496520168.8100430965,1496520168.8124580383, -1.1323,  0.1450,  0.0864, -6.8817, -7.3700,-21.0876
1496520168.8125839233,1496520168.8148679733, -1.1323,  0.1450,  0.0864, -6.8817, -7.3700,-21.0876
1496520168.8149399757,1496520168.8172209263, -1.1323,  0.1450,  0.0864, -6.8817, -7.1564,-22.2015
1496520168.8172929287,1496520168.8195769787, -1.1323,  0.1450,  0.0864, -8.3923, -7.1564,-22.2015
1496520168.8196508884,1496520168.8219399452, -1.1323,  0.1450,  0.0864, -8.3923, -7.1564,-22.2015
1496520168.8220140934,1496520168.8244049549, -1.1323,  0.1450,  0.0864, -8.3923, -7.1564,-22.2015
1496520168.8244800568,1496520168.8268949986, -1.1323,  0.1450,  0.0864, -8.3923, -7.1564,-22.2015
1496520168.8269701004,1496520168.8293790817, -1.1533,  0.1709,  0.0461,-10.3149, -5.5389,-23.8647
1496520168.8294560909,1496520168.8318660259, -1.1533,  0.1709,  0.0461,-10.3149, -5.5389,-23.8647
1496520168.8319430351,1496520168.8343579769, -1.1533,  0.1709,  0.0461,-10.3149, -5.5389,-23.8647
1496520168.8344340324,1496520168.8368389606, -1.1533,  0.1709,  0.0461,-10.3149, -5.5389,-23.8647
1496520168.8369150162,1496520168.8393290043, -1.1533,  0.1709,  0.0461,-13.3057, -3.7537,-25.5890
1496520168.8394060135,1496520168.8418090343, -1.1533,  0.1709,  0.0461,-13.3057, -3.7537,-25.5890
1496520168.8418850899,1496520168.8443388939, -1.1533,  0.1709,  0.0461,-13.3057, -3.7537,-25.5890
1496520168.8444159031,1496520168.8468270302, -1.1533,  0.1709,  0.0461,-13.3057, -3.7537,-25.5890
1496520168.8470149040,1496520168.8494229317, -1.1721,  0.2229,  0.0583,-18.3258, -1.7242,-27.5421
1496520168.8494999409,1496520168.8519070148, -1.1721,  0.2229,  0.0583,-18.3258, -1.7242,-27.5421
1496520168.8519840240,1496520168.8543961048, -1.1721,  0.2229,  0.0583,-18.3258, -1.7242,-27.5421
1496520168.8544731140,1496520168.8568799496, -1.1721,  0.2229,  0.0583,-18.3258, -1.7242,-27.5421
1496520168.8569569588,1496520168.8593719006, -1.1721,  0.2229,  0.0583,-18.3258,  2.1820,-31.1432
1496520168.8594479561,1496520168.8618550301, -1.1721,  0.2229,  0.0583,-26.5045,  1.1749,-31.1432
1496520168.8619320393,1496520168.8642539978, -1.1721,  0.2229,  0.0583,-26.5045,  1.1749,-31.1432
1496520168.8643310070,1496520168.8666129112, -1.1721,  0.2229,  0.0583,-26.5045,  1.1749,-31.1432
1496520168.8666899204,1496520168.8689730167, -1.1904,  0.2314,  0.0115,-26.5045,  1.1749,-31.1432
1496520168.8690490723,1496520168.8713328838, -1.1904,  0.2314,  0.0115,-35.2020,  2.7313,-34.7290
1496520168.8714089394,1496520168.8737928867, -1.1904,  0.2314,  0.0115,-35.2020,  2.7313,-34.7290
1496520168.8738689423,1496520168.8762741089, -1.1904,  0.2314,  0.0115,-35.2020,  2.7313,-34.7290
1496520168.8763511181,1496520168.8788099289, -1.1904,  0.2314,  0.0115,-35.2020,  2.7313,-34.7290
1496520168.8788869381,1496520168.8812890053, -1.1904,  0.2314,  0.0115,-44.8303,  4.1504,-37.7502
1496520168.8813660145,1496520168.8837850094, -1.1904,  0.2314,  0.0115,-44.8303,  4.1504,-37.7502
1496520168.8838620186,1496520168.8862740993, -1.1904,  0.2314,  0.0115,-44.8303,  4.1504,-37.7502
1496520168.8863511086,1496520168.8887579441, -1.1904,  0.2043, -0.0413,-44.8303,  4.1504,-37.7502
1496520168.8888359070,1496520168.8912489414, -1.2212,  0.2043, -0.0413,-44.8303,  5.6915,-42.7399
1496520168.8913259506,1496520168.8937430382, -1.2212,  0.2043, -0.0413,-52.4902,  5.6915,-42.7399
1496520168.8938210011,1496520168.8962309361, -1.2212,  0.2043, -0.0413,-52.4902,  5.6915,-42.7399
1496520168.8963079453,1496520168.8987200260, -1.2212,  0.2043, -0.0413,-52.4902,  5.6915,-42.7399
1496520168.8987970352,1496520168.9011979103, -1.2212,  0.2043, -0.0413,-52.4902,  5.6915,-47.1649
1496520168.9012749195,1496520168.9037330151, -1.2212,  0.2043, -0.0413,-57.3883,  7.4005,-47.1649
1496520168.9038100243,1496520168.9062221050, -1.2212,  0.2043, -0.0413,-57.3883,  7.4005,-47.1649
1496520168.9063000679,1496520168.9087040424, -1.2212,  0.1616, -0.0706,-57.3883,  7.4005,-47.1649
1496520168.9087810516,1496520168.9111979008, -1.2402,  0.1616, -0.0706,-57.3883,  7.4005,-47.1649
1496520168.9112749100,1496520168.9136619568, -1.2402,  0.1616, -0.0706,-59.4940,  8.8654,-51.8951
1496520168.9137411118,1496520168.9160199165, -1.2402,  0.1616, -0.0706,-59.4940,  8.8654,-51.8951
1496520168.9160959721,1496520168.9183819294, -1.2402,  0.1616, -0.0706,-59.4940,  8.8654,-51.8951
1496520168.9184589386,1496520168.9207410812, -1.2402,  0.1616, -0.0706,-59.4940,  8.8654,-51.8951
1496520168.9208180904,1496520168.9231750965, -1.2402,  0.1616, -0.0706,-55.5878,  8.5907,-57.2205
1496520168.9232521057,1496520168.9256629944, -1.2402,  0.1616, -0.0706,-56.9763,  8.5907,-57.2205
1496520168.9257419109,1496520168.9281508923, -1.2402,  0.1616, -0.0706,-56.9763,  8.5907,-57.2205
1496520168.9282279015,1496520168.9306399822, -1.2742,  0.1060, -0.0884,-56.9763,  8.5907,-57.2205
1496520168.9307179451,1496520168.9331390858, -1.2742,  0.1060, -0.0884,-56.9763,  8.5907,-61.1267
1496520168.9332180023,1496520168.9356260300, -1.2742,  0.1060, -0.0884,-56.1371,  9.9335,-61.1267
1496520168.9357049465,1496520168.9381160736, -1.2742,  0.1060, -0.0884,-56.1371,  9.9335,-61.1267
1496520168.9381940365,1496520168.9406011105, -1.2742,  0.1060, -0.0884,-56.1371,  9.9335,-61.1267
1496520168.9406800270,1496520168.9431390762, -1.2742,  0.1060, -0.0884,-56.1371,  9.9335,-61.1267
1496520168.9432179928,1496520168.9456310272, -1.2742,  0.1060, -0.0884,-61.2488, 13.9771,-62.9730
1496520168.9457108974,1496520168.9481179714, -1.2742,  0.1060, -0.1509,-61.2488, 13.9771,-62.9730
1496520168.9481980801,1496520168.9506070614, -1.2712,  0.0989, -0.1587,-61.2488, 13.9771,-62.9730
1496520168.9507949352,1496520168.9532179832, -1.2712,  0.0989, -0.1587,-61.2488, 13.9771,-62.9730
1496520168.9532959461,1496520168.9557039738, -1.2712,  0.0989, -0.1587,-71.6705, 17.2272,-64.0717
1496520168.9557840824,1496520168.9581971169, -1.2712,  0.0989, -0.1587,-71.6705, 17.2272,-64.0717
1496520168.9582760334,1496520168.9606859684, -1.2712,  0.0989, -0.1587,-71.6705, 17.2272,-64.0717
1496520168.9607648849,1496520168.9631619453, -1.2712,  0.0989, -0.1587,-71.6705, 17.2272,-64.0717
1496520168.9632420540,1496520168.9655280113, -1.2712,  0.0989, -0.1587,-85.8917, 17.1356,-64.8956
1496520168.9656069279,1496520168.9678840637, -1.2712,  0.0989, -0.1587,-85.8917, 17.1356,-64.8956
1496520168.9679629803,1496520168.9702510834, -1.3970,  0.0703, -0.1758,-85.8917, 17.1356,-64.8956
1496520168.9703299999,1496520168.9726250172, -1.3970,  0.0703, -0.1758,-85.8917, 17.1356,-64.8956
1496520168.9727039337,1496520168.9750759602, -1.3970,  0.0703, -0.1758,-85.8917, 17.1356,-64.8956
1496520168.9751560688,1496520168.9775280952, -1.3970,  0.0703, -0.1758,-97.5342, 14.7858,-64.6515
1496520168.9776070118,1496520168.9800999165, -1.3970,  0.0703, -0.1758,-97.5342, 14.7858,-64.6515
1496520168.9801809788,1496520168.9826018810, -1.3970,  0.0703, -0.1758,-97.5342, 14.7858,-64.6515
1496520168.9826810360,1496520168.9850950241, -1.3970,  0.0703, -0.1758,-97.5342, 14.7858,-64.6515
1496520168.9851748943,1496520168.9875841141, -1.3970,  0.0703, -0.1758,-103.7292, 11.5967,-64.0869
1496520168.9876639843,1496520168.9900779724, -1.4763,  0.0022, -0.0740,-103.7292, 11.5967,-64.0869
1496520168.9901580811,1496520168.9925739765, -1.4763,  0.0022, -0.0740,-103.7292, 11.5967,-64.0869
1496520168.9926540852,1496520168.9950571060, -1.4763,  0.0022, -0.0740,-103.7292, 11.5967,-64.0869
1496520168.9951369762,1496520168.9975469112, -1.4763,  0.0022, -0.0740,-110.0464,  5.3253,-64.1327
1496520168.9976239204,1496520169.0000309944, -1.4763,  0.0022, -0.0740,-110.0464,  5.3253,-64.1327
1496520169.0001089573,1496520169.0025238991, -1.4763,  0.0022, -0.0740,-110.0464,  5.3253,-64.1327
1496520169.0026009083,1496520169.0050148964, -1.4763,  0.0022, -0.0740,-110.0464,  5.3253,-64.1327
1496520169.0050919056,1496520169.0074980259, -1.4763,  0.0022, -0.0740,-110.0464, -2.4414,-65.4297
1496520169.0075759888,1496520169.0099890232, -1.2627, -0.2979, -0.0706,-97.7020, -2.4414,-65.4297
1496520169.0100650787,1496520169.0124690533, -1.2627, -0.2979, -0.0706,-97.7020, -2.4414,-65.4297
1496520169.0125970840,1496520169.0148770809, -1.2627, -0.2979, -0.0706,-97.7020, -2.4414,-65.4297
1496520169.0149540901,1496520169.0172390938, -1.2627, -0.2979, -0.0706,-97.7020, -2.4414,-65.4297
1496520169.0173149109,1496520169.0195999146, -1.2627, -0.2979, -0.0706,-68.9850, -8.1787,-67.6422
1496520169.0196759701,1496520169.0219619274, -1.2627, -0.2979, -0.0706,-68.9850, -8.1787,-67.6422
1496520169.0220379829,1496520169.0244390965, -1.2627, -0.2979, -0.0706,-68.9850, -8.1787,-67.6422
1496520169.0245170593,1496520169.0269238949, -1.2627, -0.2979, -0.0706,-68.9850, -8.1787,-67.6422
1496520169.0270020962,1496520169.0294139385, -1.2627, -0.7009, -0.1497,-44.7998,-10.8490,-69.2596
1496520169.0294930935,1496520169.0318980217, -1.2930, -0.7009, -0.1497,-44.7998,-10.8490,-69.2596
1496520169.0319759846,1496520169.0343880653, -1.2930, -0.7009, -0.1497,-44.7998,-10.8490,-69.2596
1496520169.0344650745,1496520169.0368759632, -1.2930, -0.7009, -0.1497,-44.7998,-10.8490,-69.2596
1496520169.0369539261,1496520169.0393550396, -1.2930, -0.7009, -0.1497,-21.3623,-11.5662,-74.4171
1496520169.0394330025,1496520169.0418388844, -1.2930, -0.7009, -0.1497,-22.2473,-11.5662,-74.4171
1496520169.0419170856,1496520169.0443410873, -1.2930, -0.7009, -0.1497,-22.2473,-11.5662,-74.4171
1496520169.0444190502,1496520169.0468280315, -1.2930, -0.7009, -0.1497,-22.2473,-11.5662,-74.4171
1496520169.0469059944,1496520169.0493109226, -1.4180, -0.4773, -0.3579,-22.2473,-11.5662,-77.9114
1496520169.0493888855,1496520169.0517909527, -1.3923, -0.4773, -0.3579, -6.8512, -8.9111,-77.9114
1496520169.0518651009,1496520169.0543301105, -1.3923, -0.4773, -0.3579, -6.8512, -8.9111,-77.9114
1496520169.0545110703,1496520169.0569310188, -1.3923, -0.4773, -0.3579, -6.8512, -8.9111,-77.9114
1496520169.0570049286,1496520169.0594110489, -1.3923, -0.4773, -0.3579, -6.8512, -8.9111,-77.9114
1496520169.0594849586,1496520169.0618929863, -1.3923, -0.4773, -0.3579,-13.9008, -3.6774,-82.1228
1496520169.0619690418,1496520169.0643000603, -1.3923, -0.4773, -0.3579,-13.9008, -3.6774,-82.1228
1496520169.0643770695,1496520169.0666580200, -1.3923, -0.4773, -0.3579,-13.9008, -3.6774,-82.1228
1496520169.0667350292,1496520169.0690200329, -1.3923,  0.0183, -0.0403,-13.9008, -3.6774,-82.1228
1496520169.0690960884,1496520169.0713779926, -1.1873,  0.0183, -0.0403,-39.4897, -3.4027,-83.9233
1496520169.0714540482,1496520169.0737481117, -1.1873,  0.0183, -0.0403,-39.4897, -3.4027,-83.9233
1496520169.0738248825,1496520169.0761110783, -1.1873,  0.0183, -0.0403,-39.4897, -3.4027,-83.9233
1496520169.0761868954,1496520169.0785028934, -1.1873,  0.0183, -0.0403,-39.4897, -3.4027,-83.9233
1496520169.0785779953,1496520169.0808629990, -1.1873,  0.0183, -0.0403,-39.4897, -3.4027,-81.2836
1496520169.0809390545,1496520169.0832850933, -1.1873,  0.0183, -0.0403,-67.5507,  2.5330,-81.2836
1496520169.0833621025,1496520169.0857689381, -1.1873,  0.0183, -0.0403,-67.5507,  2.5330,-81.2836
1496520169.0858469009,1496520169.0882630348, -1.1873,  0.0183, -0.0403,-67.5507,  2.5330,-81.2836
1496520169.0883409977,1496520169.0907499790, -0.9438, -0.3389, -0.2979,-67.5507,  2.5330,-81.2836
1496520169.0908279419,1496520169.0932440758, -0.9438, -0.3389, -0.2979,-80.9174, 11.7950,-83.6487
1496520169.0933239460,1496520169.0957360268, -0.9438, -0.3389, -0.2979,-80.9174, 11.7950,-83.6487
1496520169.0958149433,1496520169.0982229710, -0.9438, -0.3389, -0.2979,-80.9174, 11.7950,-83.6487
1496520169.0983018875,1496520169.1007130146, -0.9438, -0.3389, -0.2979,-80.9174, 11.7950,-83.6487
1496520169.1007919312,1496520169.1032218933, -0.9438, -0.3389, -0.2979,-77.6062, 18.0054,-84.6100
1496520169.1033029556,1496520169.1057090759, -0.9438, -0.3389, -0.2979,-77.6062, 18.0054,-84.6100
1496520169.1057889462,1496520169.1082038879, -0.9438, -0.3389, -0.2979,-77.6062, 18.0054,-84.6100
1496520169.1082849503,1496520169.1106929779, -0.9585, -0.4368, -0.3474,-77.6062, 18.0054,-84.6100
1496520169.1107730865,1496520169.1131880283, -0.9585, -0.4368, -0.3474,-77.6062, 20.6299,-80.4901
1496520169.1132669449,1496520169.1156840324, -0.9585, -0.4368, -0.3474,-60.5164, 20.6299,-80.4901
1496520169.1157619953,1496520169.1181690693, -0.9585, -0.4368, -0.3474,-60.5164, 20.6299,-80.4901
1496520169.1182479858,1496520169.1206541061, -0.9585, -0.4368, -0.3474,-60.5164, 20.6299,-80.4901
1496520169.1207330227,1496520169.1231310368, -0.9585, -0.4368, -0.3474,-60.5164, 20.6299,-76.5839
1496520169.1232099533,1496520169.1254971027, -0.9585, -0.4368, -0.3474,-33.7372, 20.4926,-75.2411
1496520169.1255760193,1496520169.1278669834, -0.9585, -0.4368, -0.3474,-33.7372, 20.4926,-75.2411
1496520169.1279470921,1496520169.1302299500, -0.6926, -0.2168, -0.0349,-33.7372, 20.4926,-75.2411
1496520169.1303100586,1496520169.1326129436, -0.6926, -0.2168, -0.0349,-33.7372, 20.4926,-75.2411
1496520169.1326920986,1496520169.1351070404, -0.6926, -0.2168, -0.0349,  1.3733, 18.8446,-68.5272
1496520169.1351850033,1496520169.1375930309, -0.6926, -0.2168, -0.0349,  1.3733, 18.8446,-68.5272
1496520169.1376709938,1496520169.1400799751, -0.6926, -0.2168, -0.0349,  1.3733, 18.8446,-68.5272
1496520169.1401569843,1496520169.1425819397, -0.6926, -0.2168, -0.0349,  1.3733, 18.8446,-68.5272
1496520169.1426599026,1496520169.1450650692, -0.6926, -0.2168, -0.0349, 36.5295, 15.9760,-59.6008
1496520169.1451458931,1496520169.1475579739, -0.6926, -0.2168, -0.0349, 35.8276, 15.9760,-59.6008
1496520169.1476368904,1496520169.1500430107, -0.1892,  0.3801,  0.0720, 35.8276, 15.9760,-59.6008
1496520169.1501219273,1496520169.1525430679, -0.1892,  0.3801,  0.0720, 35.8276, 15.9760,-59.6008
1496520169.1526219845,1496520169.1550400257, -0.1892,  0.3801,  0.0720, 35.8276, 15.9760,-43.1519
1496520169.1552278996,1496520169.1576380730, -0.1892,  0.3801,  0.0720, 58.7616, 12.9089,-43.1519
1496520169.1577179432,1496520169.1601219177, -0.1892,  0.3801,  0.0720, 58.7616, 12.9089,-43.1519
1496520169.1602010727,1496520169.1626229286, -0.1892,  0.3801,  0.0720, 58.7616, 12.9089,-43.1519
1496520169.1627020836,1496520169.1651070118, -0.1892,  0.3801,  0.0720, 58.7616, 12.9089,-43.1519
1496520169.1651859283,1496520169.1675970554, -0.1892,  0.3801,  0.0720, 66.9098, 13.6566,-14.2822
1496520169.1676759720,1496520169.1700820923,  0.6213,  1.4646,  0.0205, 66.9098, 13.6566,-14.2822
1496520169.1701610088,1496520169.1725769043,  0.6213,  1.4646,  0.0205, 66.9098, 13.6566,-14.2822
1496520169.1726551056,1496520169.1749479771,  0.6213,  1.4646,  0.0205, 66.9098, 13.6566,-14.2822
1496520169.1750259399,1496520169.1773118973,  0.6213,  1.4646,  0.0205, 56.3660, 17.8986, 29.5410
1496520169.1773900986,1496520169.1796710491,  0.6213,  1.4646,  0.0205, 56.3660, 17.8986, 29.5410
1496520169.1797499657,1496520169.1820399761,  0.6213,  1.4646,  0.0205, 56.3660, 17.8986, 29.5410
1496520169.1821188927,1496520169.1844470501,  0.6213,  1.4646,  0.0205, 56.3660, 17.8986, 29.5410
1496520169.1845259666,1496520169.1868090630,  0.6213,  1.4646,  0.0205, 56.3660, 17.8986, 83.4045
1496520169.1868870258,1496520169.1891689301,  0.6213,  1.7632,  0.0059, 26.0162, 24.4598, 83.4045
1496520169.1892480850,1496520169.1915309429,  0.8623,  1.7632,  0.0059, 26.0162, 24.4598, 83.4045
1496520169.1916100979,1496520169.1939849854,  0.8623,  1.7632,  0.0059, 26.0162, 24.4598, 83.4045
1496520169.1940660477,1496520169.1964759827,  0.8623,  1.7632,  0.0059, 26.0162, 24.4598, 83.4045
1496520169.1965560913,1496520169.1989660263,  0.8623,  1.7632,  0.0059, -8.0414, 31.6620,140.0909
1496520169.1990449429,1496520169.2014539242,  0.8623,  1.7632,  0.0059, -8.0414, 31.6620,140.0909
1496520169.2015318871,1496520169.2039499283,  0.8623,  1.7632,  0.0059, -8.0414, 31.6620,140.0909
1496520169.2040290833,1496520169.2064440250,  0.8623,  1.7632,  0.0059, -8.0414, 31.6620,140.0909
1496520169.2065219879,1496520169.2089319229,  0.8623,  1.7632, -0.1091,-27.3743, 40.2069,187.1948
1496520169.2090110779,1496520169.2114219666, -0.4163,  0.9163, -0.1091,-27.3743, 40.2069,187.1948
1496520169.2115020752,1496520169.2139270306, -0.4163,  0.9163, -0.1091,-27.3743, 40.2069,187.1948
1496520169.2140069008,1496520169.2164120674, -0.4163,  0.9163, -0.1091,-27.3743, 40.2069,187.1948
1496520169.2164909840,1496520169.2189009190, -0.4163,  0.9163, -0.1091,-27.3743, 46.9971,224.4568
1496520169.2189810276,1496520169.2213909626, -0.4163,  0.9163, -0.1091,-29.0680, 46.9971,224.4568
1496520169.2214710712,1496520169.2238581181, -0.4163,  0.9163, -0.1091,-29.0680, 46.9971,224.4568
1496520169.2239398956,1496520169.2262299061, -0.4163,  0.9163, -0.1091,-29.0680, 46.9971,224.4568
1496520169.2263090611,1496520169.2285881042, -0.4163,  0.9163, -0.1091,-29.0680, 46.9971,224.4568
1496520169.2286670208,1496520169.2309501171, -2.1670,  0.4343,  1.5728,-39.5050, 48.9960,254.8370
1496520169.2310290337,1496520169.2333669662, -2.1670,  0.4343,  1.5728,-39.5050, 48.9960,254.8370
1496520169.2334449291,1496520169.2358338833, -2.1670,  0.4343,  1.5728,-39.5050, 48.9960,254.8370
1496520169.2359108925,1496520169.2383000851, -2.1670,  0.4343,  1.5728,-39.5050, 48.9960,254.8370
1496520169.2383780479,1496520169.2407701015, -2.1670,  0.4343,  1.5728,-137.0850,-28.1677,202.8046
1496520169.2408480644,1496520169.2432420254, -2.1670,  0.4343,  1.5728,-137.0850,-28.1677,202.8046
1496520169.2433199883,1496520169.2457070351, -2.1670,  0.4343,  1.5728,-137.0850,-28.1677,202.8046
1496520169.2457849979,1496520169.2481739521, -2.1670,  0.4343,  1.5728,-137.0850,-28.1677,202.8046
1496520169.2482519150,1496520169.2506411076, -7.8870, -3.8064,  1.0332,-137.0850, 18.8904,-73.9746
1496520169.2507181168,1496520169.2531239986, -7.8870, -3.8064,  1.0332,-293.7622, 18.8904,-73.9746
1496520169.2532010078,1496520169.2555899620, -7.8870, -3.8064,  1.0332,-293.7622, 18.8904,-73.9746
1496520169.2556660175,1496520169.2580559254, -7.8870, -3.8064,  1.0332,-293.7622, 18.8904,-73.9746
1496520169.2582459450,1496520169.2606379986, -7.8870, -3.8064,  1.0332,-293.7622, 18.8904, 21.9116
1496520169.2607150078,1496520169.2631459236, -7.8870, -3.8064,  1.0332,-73.6389,-45.0287, 21.9116
1496520169.2632229328,1496520169.2656190395, -7.8870, -3.8064,  1.0332,-73.6389,-45.0287, 21.9116
1496520169.2656950951,1496520169.2680799961, -7.8870, -3.8064,  1.0332,-73.6389,-45.0287, 21.9116
1496520169.2681550980,1496520169.2705490589,  0.8301,  0.8853, -0.1396,-73.6389,-45.0287, 21.9116
1496520169.2706279755,1496520169.2730140686,  0.8301,  0.8853, -0.1396,115.7074,-39.7186,-17.6239
1496520169.2730929852,1496520169.2753770351,  0.8301,  0.8853, -0.1396,115.7074,-39.7186,-17.6239
1496520169.2754559517,1496520169.2777380943,  0.8301,  0.8853, -0.1396,115.7074,-39.7186,-17.6239
1496520169.2778160572,1496520169.2801039219,  0.8301,  0.8853, -0.1396,115.7074,-39.7186,-17.6239
1496520169.2801830769,1496520169.2824668884,  0.8301,  0.8853, -0.1396, 68.8324, 34.3475,-25.3601
1496520169.2826769352,1496520169.2850949764,  0.8301,  0.8853, -0.1396, 68.7714, 34.3475,-25.3601
1496520169.2851750851,1496520169.2875781059,  0.8301,  0.8853, -0.1396, 68.7714, 34.3475,-25.3601
1496520169.2876570225,1496520169.2900578976, -0.0061,  0.7979,  0.0928, 68.7714, 34.3475,-25.3601
1496520169.2901389599,1496520169.2925539017, -0.0061,  0.7979,  0.0928, 68.7714, 34.3475, 18.8293
1496520169.2926349640,1496520169.2950370312, -0.0061,  0.7979,  0.0928,-46.6766, 49.3927, 18.8293
1496520169.2951180935,1496520169.2975249290, -0.0061,  0.7979,  0.0928,-46.6766, 49.3927, 18.8293
1496520169.2976050377,1496520169.3000171185, -0.0061,  0.7979,  0.0928,-46.6766, 49.3927, 18.8293
1496520169.3000969887,1496520169.3025391102, -0.0061,  0.7979,  0.0928,-46.6766, 49.3927, 18.8293
1496520169.3026189804,1496520169.3050389290, -0.0061,  0.7979,  0.0928,-84.5032, 10.2386, 19.9127
1496520169.3051209450,1496520169.3075299263, -0.0061,  0.7979,  0.0928,-84.5032, 10.2386, 19.9127
1496520169.3076100349,1496520169.3100149632, -0.8027, -0.6946,  0.3540,-84.5032, 10.2386, 19.9127
1496520169.3100950718,1496520169.3125510216, -0.8027, -0.6946,  0.3540,-84.5032, 10.2386, 19.9127
1496520169.3126299381,1496520169.3149180412, -0.8027, -0.6946,  0.3540,-54.0009, -3.9673,  4.8828
1496520169.3149919510,1496520169.3172769547, -0.8027, -0.6946,  0.3540,-54.0009, -3.9673,  4.8828
1496520169.3173520565,1496520169.3196380138, -0.8027, -0.6946,  0.3540,-54.0009, -3.9673,  4.8828
1496520169.3197119236,1496520169.3219969273, -0.8027, -0.6946,  0.3540,-54.0009, -3.9673,  4.8828
1496520169.3220698833,1496520169.3244609833, -0.8027, -0.6946,  0.3540,-54.0009,  3.8452,  0.6866
1496520169.3245360851,1496520169.3269469738, -0.8027, -0.6946,  0.3540, -2.7924,  3.2654,  0.6866
1496520169.3270180225,1496520169.3294229507, -0.8027, -0.4446,  0.0000, -2.7924,  3.2654,  0.6866
1496520169.3294949532,1496520169.3319020271, -1.2104, -0.4875,  0.0000, -2.7924,  3.2654,  0.6866
1496520169.3319730759,1496520169.3343920708, -1.2104, -0.4875,  0.0000, -2.7924,  3.2654,  0.6866
1496520169.3344628811,1496520169.3368740082, -1.2104, -0.4875,  0.0000, 31.9061, 15.9149,  1.5869
1496520169.3369491100,1496520169.3393640518, -1.2104, -0.4875,  0.0000, 31.9061, 15.9149,  1.5869
1496520169.3394410610,1496520169.3418450356, -1.2104, -0.4875,  0.0000, 31.9061, 15.9149,  1.5869
1496520169.3419210911,1496520169.3443460464, -1.2104, -0.4875,  0.0000, 31.9061, 15.9149,  1.5869
1496520169.3444230556,1496520169.3468289375, -1.2104, -0.4875,  0.0000, 39.7644, 24.8260,  7.7515
1496520169.3469049931,1496520169.3493099213, -1.2104, -0.4875, -0.1313, 39.7644, 24.8260,  7.7515
1496520169.3493869305,1496520169.3517949581, -1.5576,  0.1265, -0.1313, 39.7644, 24.8260,  7.7515
1496520169.3518719673,1496520169.3543260098, -1.5576,  0.1265, -0.1313, 39.7644, 24.8260,  7.7515
1496520169.3544030190,1496520169.3568100929, -1.5576,  0.1265, -0.1313, 25.2838, 29.8462, 15.8997
1496520169.3568890095,1496520169.3592948914, -1.5576,  0.1265, -0.1313, 25.2838, 29.8462, 15.8997
1496520169.3593730927,1496520169.3617770672, -1.5576,  0.1265, -0.1313, 25.2838, 29.8462, 15.8997
1496520169.3619639874,1496520169.3642990589, -1.5576,  0.1265, -0.1313, 25.2838, 29.8462, 15.8997
1496520169.3643779755,1496520169.3666589260, -1.5576,  0.1265, -0.1313, 25.2838, 25.9399, 17.2119
1496520169.3667368889,1496520169.3690190315, -1.5576,  0.1265,  0.0562,  7.5836, 26.2146, 17.2119
1496520169.3690960407,1496520169.3713829517, -1.4333,  0.0754,  0.0171,  7.5836, 26.2146, 17.2119
1496520169.3714590073,1496520169.3738279343, -1.4333,  0.0754,  0.0171,  7.5836, 26.2146, 17.2119
1496520169.3739049435,1496520169.3763139248, -1.4333,  0.0754,  0.0171,  7.5836, 26.2146, 17.2119
1496520169.3763899803,1496520169.3788011074, -1.4333,  0.0754,  0.0171, -0.7324, 18.3411, 14.4501
1496520169.3788790703,1496520169.3812830448, -1.4333,  0.0754,  0.0171, -0.7324, 18.3411, 14.4501
1496520169.3813600540,1496520169.3837850094, -1.4333,  0.0754,  0.0171, -0.7324, 18.3411, 14.4501
1496520169.3838629723,1496520169.3862700462, -1.4333,  0.0754,  0.0171, -0.7324, 18.3411, 14.4501
1496520169.3863480091,1496520169.3887538910, -1.4333,  0.0754,  0.0171,  6.3324, 12.9852, 12.4207
1496520169.3888299465,1496520169.3912370205, -1.0142, -0.1536, -0.1846,  6.3324, 12.9852, 12.4207
1496520169.3913149834,1496520169.3937380314, -1.0142, -0.1536, -0.1846,  6.3324, 12.9852, 12.4207
1496520169.3938140869,1496520169.3962180614, -1.0142, -0.1536, -0.1846,  6.3324, 12.9852, 12.4207
1496520169.3962941170,1496520169.3986999989, -1.0142, -0.1536, -0.1846, 25.8636, 11.5509,  8.2092
1496520169.3987779617,1496520169.4011778831, -1.0142, -0.1536, -0.1846, 24.0021, 11.5509,  8.2092
1496520169.4012548923,1496520169.4036660194, -1.0142, -0.1536, -0.1846, 24.0021, 11.5509,  8.2092
1496520169.4037439823,1496520169.4061460495, -1.0142, -0.1536, -0.1846, 24.0021, 11.5509,  8.2092
1496520169.4062230587,1496520169.4086239338, -1.0142, -0.1536, -0.1846, 24.0021, 11.5509,  4.7455
1496520169.4086999893,1496520169.4111099243, -1.0090,  0.0803, -0.3787, 38.4979, 10.1776,  4.7455
1496520169.4111878872,1496520169.4135539532, -1.0090,  0.0803, -0.3787, 38.4979, 10.1776,  4.7455
1496520169.4136300087,1496520169.4159150124, -1.0090,  0.0803, -0.3787, 38.4979, 10.1776,  4.7455
1496520169.4159920216,1496520169.4182789326, -1.0090,  0.0803, -0.3787, 38.4979, 10.1776,  4.7455
1496520169.4183540344,1496520169.4206368923, -1.0090,  0.0803, -0.3787, 38.7573,  2.1820,  5.6458
1496520169.4207110405,1496520169.4230389595, -1.0090,  0.0803, -0.3787, 38.7573,  2.1820,  5.6458
1496520169.4231140614,1496520169.4255270958, -1.0090,  0.0803, -0.3787, 38.7573,  2.1820,  5.6458
1496520169.4256010056,1496520169.4280169010, -1.0090,  0.0803, -0.3787, 38.7573,  2.1820,  5.6458
1496520169.4280910492,1496520169.4305090904, -1.1995,  0.2019, -0.1672, 27.0386, -6.6071,  7.7667
1496520169.4305839539,1496520169.4330089092, -1.1995,  0.2019, -0.1672, 24.7955, -6.6071,  7.7667
1496520169.4330830574,1496520169.4354939461, -1.1995,  0.2019, -0.1672, 24.7955, -6.6071,  7.7667
1496520169.4355680943,1496520169.4379880428, -1.1995,  0.2019, -0.1672, 24.7955, -6.6071,  7.7667
1496520169.4380619526,1496520169.4404709339, -1.1995,  0.2019, -0.1672, 24.7955, -6.6071,  9.5367
1496520169.4405450821,1496520169.4429619312, -1.1995,  0.2019, -0.1672,  4.8065,-10.1166,  9.5367
1496520169.4430348873,1496520169.4453189373, -1.1995,  0.2019, -0.1672,  4.8065,-10.1166,  9.5367
1496520169.4453930855,1496520169.4476749897, -1.1995,  0.2019, -0.1672,  4.8065,-10.1166,  9.5367
1496520169.4477479458,1496520169.4500401020, -1.1995,  0.0718, -0.0366,  4.8065,-10.1166,  9.5367
1496520169.4501149654,1496520169.4524040222, -1.1997,  0.0718, -0.0366,-12.4359, -9.6130, 10.7422
1496520169.4524800777,1496520169.4549410343, -1.1997,  0.0718, -0.0366,-12.4359, -9.6130, 10.7422
1496520169.4550180435,1496520169.4574289322, -1.1997,  0.0718, -0.0366,-12.4359, -9.6130, 10.7422
1496520169.4575068951,1496520169.4599111080, -1.1997,  0.0718, -0.0366,-12.4359, -9.6130, 10.7422
1496520169.4599869251,1496520169.4623970985, -1.1997,  0.0718, -0.0366,-20.9045, -7.4158,  9.9030
1496520169.4624719620,1496520169.4648149014, -1.1997,  0.0718, -0.0366,-20.9045, -7.4158,  9.9030
1496520169.4649949074,1496520169.4672849178, -1.1997,  0.0718, -0.0366,-20.9045, -7.4158,  9.9030
1496520169.4673590660,1496520169.4696459770, -1.1997,  0.0093,  0.0488,-20.9045, -7.4158,  9.9030
1496520169.4697210789,1496520169.4720079899, -1.1838,  0.0195,  0.0488,-20.9045, -7.4158,  8.3923
1496520169.4720830917,1496520169.4745240211, -1.1838,  0.0195,  0.0488,-24.1394, -5.8594,  8.3923
1496520169.4745979309,1496520169.4770109653, -1.1838,  0.0195,  0.0488,-24.1394, -5.8594,  8.3923
1496520169.4770851135,1496520169.4794878960, -1.1838,  0.0195,  0.0488,-24.1394, -5.8594,  8.3923
1496520169.4795620441,1496520169.4819738865, -1.1838,  0.0195,  0.0488,-24.1394, -5.8594,  8.3923
1496520169.4820480347,1496520169.4844579697, -1.1838,  0.0195,  0.0488,-25.1770, -3.6316,  8.2397
1496520169.4845321178,1496520169.4869349003, -1.1838,  0.0195,  0.0488,-25.1770, -3.6316,  8.2397
1496520169.4870090485,1496520169.4894158840, -1.1838,  0.0195,  0.0488,-25.1770, -3.6316,  8.2397
1496520169.4894900322,1496520169.4918959141, -1.1125,  0.0063,  0.0510,-25.1770, -3.6316,  8.2397
1496520169.4919700623,1496520169.4943869114, -1.1125,  0.0063,  0.0510,-25.3754, -0.4120,  8.4229
1496520169.4944639206,1496520169.4968729019, -1.1125,  0.0063,  0.0510,-25.3754, -0.4120,  8.4229
1496520169.4969499111,1496520169.4993550777, -1.1125,  0.0063,  0.0510,-25.3754, -0.4120,  8.4229
1496520169.4994299412,1496520169.5018429756, -1.1125,  0.0063,  0.0510,-25.3754, -0.4120,  8.4229
1496520169.5019209385,1496520169.5043399334, -1.1125,  0.0063,  0.0510,-25.3754,  3.9978,  7.4921
1496520169.5044150352,1496520169.5068190098, -1.1125,  0.0063,  0.0510,-26.1993,  3.9978,  7.4921
1496520169.5068941116,1496520169.5093050003, -1.1125,  0.0063,  0.0510,-26.1993,  3.9978,  7.4921
1496520169.5093789101,1496520169.5117859840, -1.1130,  0.0249,  0.0605,-26.1993,  3.9978,  7.4921
1496520169.5118579865,1496520169.5141780376, -1.1130,  0.0249,  0.0605,-26.1993,  3.9978,  7.4921
1496520169.5142509937,1496520169.5165400505, -1.1130,  0.0249,  0.0605,-26.0925,  8.0414,  6.2714
1496520169.5166139603,1496520169.5188961029, -1.1130,  0.0249,  0.0605,-26.0925,  8.0414,  6.2714
1496520169.5189709663,1496520169.5212581158, -1.1130,  0.0249,  0.0605,-26.0925,  8.0414,  6.2714
1496520169.5213320255,1496520169.5237319469, -1.1130,  0.0249,  0.0605,-26.0925,  8.0414,  6.2714
1496520169.5238060951,1496520169.5262110233, -1.1130,  0.0249,  0.0605,-26.2604, 10.4980,  5.4626
1496520169.5262870789,1496520169.5286970139, -1.1130,  0.0249,  0.0605,-26.2604, 10.4980,  5.4626
1496520169.5287740231,1496520169.5311760902, -1.1550,  0.0271,  0.0232,-26.2604, 10.4980,  5.4626
1496520169.5312530994,1496520169.5336580276, -1.1550,  0.0271,  0.0232,-26.2604, 10.4980,  5.4626
1496520169.5337350368,1496520169.5361471176, -1.1550,  0.0271,  0.0232,-26.2604, 13.4125,  4.1656
1496520169.5362229347,1496520169.5386281013, -1.1550,  0.0271,  0.0232,-26.0162, 13.4125,  4.1656
1496520169.5387039185,1496520169.5411119461, -1.1550,  0.0271,  0.0232,-26.0162, 13.4125,  4.1656
1496520169.5411889553,1496520169.5436079502, -1.1550,  0.0271,  0.0232,-26.0162, 13.4125,  4.1656
1496520169.5436849594,1496520169.5460898876, -1.1550,  0.0271,  0.0232,-26.0162, 13.4125,  2.4414
1496520169.5461659431,1496520169.5485770702, -1.1550,  0.0271,  0.0232,-25.3754, 14.8621,  2.4414
1496520169.5486519337,1496520169.5510640144, -1.1765,  0.0098, -0.0540,-25.3754, 14.8621,  2.4414
1496520169.5511419773,1496520169.5535080433, -1.1765,  0.0098, -0.0540,-25.3754, 14.8621,  2.4414
1496520169.5535860062,1496520169.5558769703, -1.1765,  0.0098, -0.0540,-25.3754, 14.8621,  2.4414
1496520169.5559549332,1496520169.5582349300, -1.1765,  0.0098, -0.0540,-24.3378, 14.7095,  1.5106
1496520169.5583128929,1496520169.5606000423, -1.1765,  0.0098, -0.0540,-24.3378, 14.7095,  1.5106
1496520169.5606780052,1496520169.5629699230, -1.1765,  0.0098, -0.0540,-24.3378, 14.7095,  1.5106
1496520169.5630478859,1496520169.5653319359, -1.1765,  0.0098, -0.0540,-24.3378, 14.7095,  1.5106
1496520169.5655179024,1496520169.5678069592, -1.1765,  0.0098, -0.0540,-20.4315, 12.1002,  0.7935
1496520169.5678870678,1496520169.5701739788, -1.1765,  0.0125, -0.0942,-23.1171, 12.1002,  0.7935
1496520169.5702519417,1496520169.5725719929, -1.1758,  0.0125, -0.0942,-23.1171, 12.1002,  0.7935
1496520169.5726499557,1496520169.5750610828, -1.1758,  0.0125, -0.0942,-23.1171, 12.1002,  0.7935
1496520169.5751380920,1496520169.5775439739, -1.1758,  0.0125, -0.0942,-23.1171, 12.1002,  0.7935
1496520169.5776209831,1496520169.5800340176, -1.1758,  0.0125, -0.0942,-21.2708,  8.8043,  0.3815
1496520169.5801100731,1496520169.5825459957, -1.1758,  0.0125, -0.0942,-21.2708,  8.8043,  0.3815
1496520169.5826220512,1496520169.5850350857, -1.1758,  0.0125, -0.0942,-21.2708,  8.8043,  0.3815
1496520169.5851099491,1496520169.5875198841, -1.1758,  0.0125, -0.0942,-21.2708,  8.8043,  0.3815
1496520169.5875959396,1496520169.5900061131, -1.1758,  0.0125, -0.1089,-17.1814,  6.1493,  0.0305
1496520169.5900809765,1496520169.5925350189, -1.1487,  0.0005, -0.1089,-17.1814,  6.1493,  0.0305
1496520169.5926110744,1496520169.5950241089, -1.1487,  0.0005, -0.1089,-17.1814,  6.1493,  0.0305
1496520169.5950989723,1496520169.5975050926, -1.1487,  0.0005, -0.1089,-17.1814,  6.1493,  0.0305
1496520169.5975809097,1496520169.5999970436, -1.1487,  0.0005, -0.1089,-12.4207,  4.3030,  0.0305
1496520169.6000730991,1496520169.6024780273, -1.1487,  0.0005, -0.1089,-12.4207,  4.3030,  0.0305
1496520169.6025960445,1496520169.6048760414, -1.1487,  0.0005, -0.1089,-12.4207,  4.3030,  0.0305
1496520169.6049509048,1496520169.6072421074, -1.1487,  0.0005, -0.1089,-12.4207,  4.3030,  0.0305
1496520169.6073169708,1496520169.6096000671, -1.1487,  0.0005, -0.1047,-12.4207,  4.3030, -1.0071
1496520169.6096739769,1496520169.6119530201, -1.1636, -0.0029, -0.1047, -5.6610,  3.2654, -1.0071
1496520169.6120240688,1496520169.6144249439, -1.1636, -0.0029, -0.1047, -5.6610,  3.2654, -1.0071
1496520169.6144959927,1496520169.6169009209, -1.1636, -0.0029, -0.1047, -5.6610,  3.2654, -1.0071
1496520169.6169719696,1496520169.6193809509, -1.1636, -0.0029, -0.1047, -5.6610,  3.2654, -1.0071
1496520169.6194519997,1496520169.6218509674, -1.1636, -0.0029, -0.1047,  1.0986,  3.3722, -2.0142
1496520169.6219220161,1496520169.6243419647, -1.1636, -0.0029, -0.1047,  1.0986,  3.3722, -2.0142
1496520169.6244130135,1496520169.6268289089, -1.1636, -0.0029, -0.1047,  1.0986,  3.3722, -2.0142
1496520169.6268990040,1496520169.6293060780, -1.1636, -0.0029, -0.1047,  1.0986,  3.3722, -2.0142
1496520169.6293780804,1496520169.6317849159, -1.1594,  0.0129, -0.1064,  6.3019,  2.8229, -2.2583
1496520169.6318559647,1496520169.6342740059, -1.1594,  0.0129, -0.1064,  6.3019,  2.8229, -2.2583
1496520169.6343450546,1496520169.6367540359, -1.1594,  0.0129, -0.1064,  6.3019,  2.8229, -2.2583
1496520169.6368238926,1496520169.6392369270, -1.1594,  0.0129, -0.1064,  6.3019,  2.8229, -2.2583
1496520169.6393070221,1496520169.6417129040, -1.1594,  0.0129, -0.1064,  6.3019,  2.1057, -1.9226
1496520169.6417839527,1496520169.6442000866, -1.1594,  0.0129, -0.1064,  8.7128,  2.1057, -1.9226
1496520169.6442720890,1496520169.6466801167, -1.1594,  0.0129, -0.1064,  8.7128,  2.1057, -1.9226
1496520169.6467521191,1496520169.6491589546, -1.1594,  0.0129, -0.1064,  8.7128,  2.1057, -1.9226
1496520169.6492300034,1496520169.6516399384, -1.1487,  0.0588, -0.0881,  8.7128,  2.1057, -1.9226
1496520169.6517109871,1496520169.6540520191, -1.1487,  0.0588, -0.0881,  8.2092,  2.1973, -1.7090
1496520169.6541230679,1496520169.6564099789, -1.1487,  0.0588, -0.0881,  8.2092,  2.1973, -1.7090
1496520169.6564800739,1496520169.6587700844, -1.1487,  0.0588, -0.0881,  8.2092,  2.1973, -1.7090
1496520169.6588399410,1496520169.6611249447, -1.1487,  0.0588, -0.0881,  8.2092,  2.1973, -1.7090
1496520169.6611940861,1496520169.6635720730, -1.1487,  0.0588, -0.0881,  5.3101,  3.2959, -1.4343
1496520169.6636419296,1496520169.6660549641, -1.1487,  0.0588, -0.0881,  5.3101,  3.2959, -1.4343
1496520169.6661250591,1496520169.6685299873, -1.1487,  0.0588, -0.0881,  5.3101,  3.2959, -1.4343
1496520169.6687068939,1496520169.6711149216, -1.1316,  0.0637, -0.0391,  5.3101,  3.2959, -1.4343
1496520169.6711859703,1496520169.6736350060, -1.1316,  0.0637, -0.0391,  1.4038,  4.7913, -1.8158
1496520169.6737060547,1496520169.6761159897, -1.1316,  0.0637, -0.0391,  1.5411,  4.7913, -1.8158
1496520169.6761860847,1496520169.6786000729, -1.1316,  0.0637, -0.0391,  1.5411,  4.7913, -1.8158
1496520169.6786699295,1496520169.6810789108, -1.1316,  0.0637, -0.0391,  1.5411,  4.7913, -1.8158
1496520169.6811490059,1496520169.6835711002, -1.1316,  0.0637, -0.0391,  1.5411,  4.7913, -1.0834
1496520169.6836409569,1496520169.6860530376, -1.1316,  0.0637, -0.0391, -2.6398,  4.1199, -1.0834
1496520169.6861228943,1496520169.6885290146, -1.1316,  0.0637, -0.0391, -2.6398,  4.1199, -1.0834
1496520169.6885979176,1496520169.6910030842, -1.1506,  0.0374, -0.0642, -2.6398,  4.1199, -1.0834
1496520169.6910729408,1496520169.6935460567, -1.1506,  0.0374, -0.0642, -2.6398,  4.1199, -1.0834
1496520169.6936159134,1496520169.6960210800, -1.1506,  0.0374, -0.0642, -5.2032,  4.3182, -0.6714
1496520169.6960918903,1496520169.6985049248, -1.1506,  0.0374, -0.0642, -5.2032,  4.3182, -0.6714
1496520169.6985759735,1496520169.7009871006, -1.1506,  0.0374, -0.0642, -5.2032,  4.3182, -0.6714
1496520169.7010591030,1496520169.7034230232, -1.1506,  0.0374, -0.0642, -5.2032,  4.3182, -0.6714
1496520169.7034940720,1496520169.7057809830, -1.1506,  0.0374, -0.0642, -4.8523,  4.5624, -1.5717
1496520169.7058498859,1496520169.7081348896, -1.1506,  0.0374, -0.0642, -4.8523,  4.5624, -1.5717
1496520169.7082040310,1496520169.7104880810, -1.1506,  0.0500, -0.0955, -4.8523,  4.5624, -1.5717
1496520169.7105579376,1496520169.7128698826, -1.1841,  0.0500, -0.0955, -4.8523,  4.5624, -1.5717
1496520169.7129399776,1496520169.7153410912, -1.1841,  0.0500, -0.0955, -4.8523,  4.5624, -2.1515
1496520169.7154109478,1496520169.7178189754, -1.1841,  0.0500, -0.0955, -4.4708,  4.0436, -2.1515
1496520169.7178890705,1496520169.7202949524, -1.1841,  0.0500, -0.0955, -4.4708,  4.0436, -2.1515
1496520169.7203650475,1496520169.7227809429, -1.1841,  0.0500, -0.0955, -4.4708,  4.0436, -2.1515
1496520169.7228510380,1496520169.7252590656, -1.1841,  0.0500, -0.0955, -4.4708,  4.0436, -2.1515
1496520169.7253289223,1496520169.7277340889, -1.1841,  0.0500, -0.0955, -4.0131,  3.0060, -3.2043
1496520169.7278039455,1496520169.7302050591, -1.1841,  0.0500, -0.1179, -4.0131,  3.0060, -3.2043
1496520169.7302761078,1496520169.7327320576, -1.1638,  0.0579, -0.1179, -4.0131,  3.0060, -3.2043
1496520169.7328031063,1496520169.7352070808, -1.1638,  0.0579, -0.1179, -4.0131,  3.0060, -3.2043
1496520169.7352778912,1496520169.7376871109, -1.1638,  0.0579, -0.1179, -2.4872,  2.2278, -3.8147
1496520169.7377569675,1496520169.7401618958, -1.1638,  0.0579, -0.1179, -2.4872,  2.2278, -3.8147
1496520169.7402319908,1496520169.7426450253, -1.1638,  0.0579, -0.1179, -2.4872,  2.2278, -3.8147
1496520169.7427148819,1496520169.7451319695, -1.1638,  0.0579, -0.1179, -2.4872,  2.2278, -3.8147
1496520169.7452020645,1496520169.7476089001, -1.1638,  0.0579, -0.1179, -2.4872,  1.4038, -4.9438
1496520169.7476789951,1496520169.7500879765, -1.1638,  0.0579, -0.0918, -0.5493,  1.4038, -4.9438
1496520169.7501580715,1496520169.7525789738, -1.1448,  0.0378, -0.0918, -0.5493,  1.4038, -4.9438
1496520169.7526490688,1496520169.7549369335, -1.1448,  0.0378, -0.0918, -0.5493,  1.4038, -4.9438
1496520169.7550079823,1496520169.7572929859, -1.1448,  0.0378, -0.0918, -0.5493,  1.4038, -4.9438
1496520169.7573640347,1496520169.7596468925, -1.1448,  0.0378, -0.0918,  1.2970,  1.0223, -4.9896
1496520169.7597169876,1496520169.7619938850, -1.1448,  0.0378, -0.0918,  1.2970,  1.0223, -4.9896
1496520169.7620630264,1496520169.7644610405, -1.1448,  0.0378, -0.0918,  1.2970,  1.0223, -4.9896
1496520169.7645299435,1496520169.7669339180, -1.1448,  0.0378, -0.0918,  1.2970,  1.0223, -4.9896
1496520169.7670030594,1496520169.7694029808, -1.1448,  0.0378, -0.0918,  2.8381, -0.3204, -4.5013
1496520169.7694740295,1496520169.7718870640, -1.1431,  0.0276, -0.0747,  2.8381, -0.3204, -4.5013
1496520169.7720661163,1496520169.7745180130, -1.1431,  0.0276, -0.0747,  2.8381, -0.3204, -4.5013
1496520169.7745890617,1496520169.7769999504, -1.1431,  0.0276, -0.0747,  2.8381, -0.3204, -4.5013
1496520169.7770709991,1496520169.7794809341, -1.1431,  0.0276, -0.0747,  4.4861, -0.7019, -4.3793
1496520169.7795519829,1496520169.7819631100, -1.1431,  0.0276, -0.0747,  4.4861, -0.7019, -4.3793
1496520169.7820339203,1496520169.7844510078, -1.1431,  0.0276, -0.0747,  4.4861, -0.7019, -4.3793
1496520169.7845220566,1496520169.7869300842, -1.1431,  0.0276, -0.0747,  4.4861, -0.7019, -4.3793
1496520169.7870008945,1496520169.7894051075, -1.1431,  0.0276, -0.0747,  4.4861, -0.7019, -4.2877
1496520169.7894759178,1496520169.7918899059, -1.1582,  0.0264, -0.0435,  4.6997, -0.9155, -4.2877
1496520169.7919609547,1496520169.7943758965, -1.1582,  0.0264, -0.0435,  4.6997, -0.9155, -4.2877
1496520169.7944469452,1496520169.7968571186, -1.1582,  0.0264, -0.0435,  4.6997, -0.9155, -4.2877
1496520169.7969269753,1496520169.7993330956, -1.1582,  0.0264, -0.0435,  4.6997, -0.9155, -4.2877
1496520169.7994050980,1496520169.8018109798, -1.1582,  0.0264, -0.0435,  4.5776, -0.9918, -3.7994
1496520169.8018820286,1496520169.8042759895, -1.1582,  0.0264, -0.0435,  4.5776, -0.9918, -3.7994
1496520169.8043470383,1496520169.8066279888, -1.1582,  0.0264, -0.0435,  4.5776, -0.9918, -3.7994
1496520169.8066990376,1496520169.8089730740, -1.1582,  0.0264, -0.0435,  4.5776, -0.9918, -3.7994
1496520169.8090438843,1496520169.8113350868, -1.1628,  0.0479, -0.0583,  4.5013, -0.4272, -3.8757
1496520169.8114049435,1496520169.8137838840, -1.1628,  0.0479, -0.0583,  4.5013, -0.4272, -3.8757
1496520169.8138549328,1496520169.8162651062, -1.1628,  0.0479, -0.0583,  4.5013, -0.4272, -3.8757
1496520169.8163359165,1496520169.8187420368, -1.1628,  0.0479, -0.0583,  4.5013, -0.4272, -3.8757
1496520169.8188130856,1496520169.8212189674, -1.1628,  0.0479, -0.0583,  4.5013,  3.4790, -4.6082
1496520169.8212890625,1496520169.8237230778, -1.1628,  0.0479, -0.0583,  3.2654,  1.1597, -4.6082
1496520169.8237929344,1496520169.8261969090, -1.1628,  0.0479, -0.0583,  3.2654,  1.1597, -4.6082
1496520169.8262670040,1496520169.8286740780, -1.1628,  0.0479, -0.0583,  3.2654,  1.1597, -4.6082
1496520169.8287448883,1496520169.8311550617, -1.1497,  0.0649, -0.0725,  3.2654,  1.1597, -4.6082
1496520169.8312239647,1496520169.8336360455, -1.1497,  0.0649, -0.0725,  1.1444,  1.8616, -5.2948
1496520169.8337049484,1496520169.8361220360, -1.1497,  0.0649, -0.0725,  1.1444,  1.8616, -5.2948
1496520169.8361909389,1496520169.8385980129, -1.1497,  0.0649, -0.0725,  1.1444,  1.8616, -5.2948
1496520169.8386669159,1496520169.8410730362, -1.1497,  0.0649, -0.0725,  1.1444,  1.8616, -5.2948
1496520169.8411428928,1496520169.8435640335, -1.1497,  0.0649, -0.0725, -0.6866,  1.8921, -5.9204
1496520169.8436338902,1496520169.8460381031, -1.1497,  0.0649, -0.0725, -0.6866,  1.8921, -5.9204
1496520169.8461101055,1496520169.8485178947, -1.1497,  0.0649, -0.0725, -0.6866,  1.8921, -5.9204
1496520169.8485879898,1496520169.8509950638, -1.1497,  0.0757, -0.1064, -0.6866,  1.8921, -5.9204
1496520169.8510670662,1496520169.8534739017, -1.1514,  0.0757, -0.1064, -2.7161,  1.9073, -6.4545
1496520169.8535449505,1496520169.8558320999, -1.1514,  0.0757, -0.1064, -2.7161,  1.9073, -6.4545
1496520169.8559019566,1496520169.8581819534, -1.1514,  0.0757, -0.1064, -2.7161,  1.9073, -6.4545
1496520169.8582520485,1496520169.8605380058, -1.1514,  0.0757, -0.1064, -2.7161,  1.9073, -6.4545
1496520169.8606081009,1496520169.8629629612, -1.1514,  0.0757, -0.1064, -2.7161,  1.9073, -6.4545
1496520169.8630330563,1496520169.8654398918, -1.1514,  0.0757, -0.1064, -4.9591,  1.4954, -7.5684
1496520169.8655099869,1496520169.8679170609, -1.1514,  0.0757, -0.1064, -4.9591,  1.4954, -7.5684
1496520169.8679881096,1496520169.8704049587, -1.1514,  0.0757, -0.1177, -4.9591,  1.4954, -7.5684
1496520169.8704750538,1496520169.8729240894, -1.1462,  0.0630, -0.1177, -4.9591,  1.4954, -7.5684
1496520169.8729948997,1496520169.8754069805, -1.1462,  0.0630, -0.1177, -5.9662,  0.9003, -8.5144
1496520169.8755838871,1496520169.8779940605, -1.1462,  0.0630, -0.1177, -5.9662,  0.9003, -8.5144
1496520169.8780670166,1496520169.8804800510, -1.1462,  0.0630, -0.1177, -5.9662,  0.9003, -8.5144
1496520169.8805530071,1496520169.8829779625, -1.1462,  0.0630, -0.1177, -5.9662,  0.9003, -8.5144
1496520169.8830499649,1496520169.8854560852, -1.1462,  0.0630, -0.1177, -6.3324,  0.0610, -9.1553
1496520169.8855290413,1496520169.8879349232, -1.1462,  0.0630, -0.1177, -6.3324,  0.0610, -9.1553
1496520169.8880069256,1496520169.8904190063, -1.1462,  0.0630, -0.1162, -6.3324,  0.0610, -9.1553
1496520169.8904910088,1496520169.8929550648, -1.1526,  0.0613, -0.1162, -6.3324,  0.0610, -9.1553
1496520169.8930270672,1496520169.8954429626, -1.1526,  0.0613, -0.1162, -6.3324, -1.1902, -9.8877
1496520169.8955130577,1496520169.8979249001, -1.1526,  0.0613, -0.1162, -5.2490, -1.1902, -9.8877
1496520169.8979969025,1496520169.9004039764, -1.1526,  0.0613, -0.1162, -5.2490, -1.1902, -9.8877
1496520169.9004750252,1496520169.9029059410, -1.1526,  0.0613, -0.1162, -5.2490, -1.1902, -9.8877
1496520169.9029779434,1496520169.9052629471, -1.1526,  0.0613, -0.1162, -5.2490, -1.1902, -9.8877
1496520169.9053339958,1496520169.9076180458, -1.1526,  0.0613, -0.1162, -4.4403, -1.8768,-11.0626
1496520169.9076919556,1496520169.9099819660, -1.1526,  0.0613, -0.1162, -4.4403, -1.8768,-11.0626
1496520169.9100549221,1496520169.9123339653, -1.1548,  0.0474, -0.1116, -4.4403, -1.8768,-11.0626
1496520169.9124081135,1496520169.9148330688, -1.1548,  0.0474, -0.1116, -4.4403, -1.8768,-11.0626
1496520169.9149069786,1496520169.9173200130, -1.1548,  0.0474, -0.1116, -3.2654, -2.5787,-12.5885
1496520169.9173939228,1496520169.9198050499, -1.1548,  0.0474, -0.1116, -3.2654, -2.5787,-12.5885
1496520169.9198780060,1496520169.9222960472, -1.1548,  0.0474, -0.1116, -3.2654, -2.5787,-12.5885
1496520169.9223709106,1496520169.9247860909, -1.1548,  0.0474, -0.1116, -3.2654, -2.5787,-12.5885
1496520169.9248600006,1496520169.9272630215, -1.1548,  0.0474, -0.1116, -3.2654, -3.0060,-13.4430
1496520169.9273378849,1496520169.9297530651, -1.1548,  0.0474, -0.1116, -2.1362, -3.0060,-13.4430
1496520169.9298279285,1496520169.9322369099, -1.1616,  0.0449, -0.0991, -2.1362, -3.0060,-13.4430
1496520169.9323101044,1496520169.9347329140, -1.1616,  0.0449, -0.0991, -2.1362, -3.0060,-13.4430
1496520169.9348061085,1496520169.9372179508, -1.1616,  0.0449, -0.0991, -2.1362, -3.0060,-14.7858
1496520169.9372899532,1496520169.9396998882, -1.1616,  0.0449, -0.0991, -1.6785, -3.6926,-14.7858
1496520169.9397730827,1496520169.9421899319, -1.1616,  0.0449, -0.0991, -1.6785, -3.6926,-14.7858
1496520169.9422619343,1496520169.9446859360, -1.1616,  0.0449, -0.0991, -1.6785, -3.6926,-14.7858
1496520169.9447588921,1496520169.9471650124, -1.1616,  0.0449, -0.0991, -1.6785, -3.6926,-14.7858
1496520169.9472389221,1496520169.9496479034, -1.1616,  0.0449, -0.0991, -2.1820, -3.2043,-15.3656
1496520169.9497199059,1496520169.9521310329, -1.1519,  0.0300, -0.0942, -2.1820, -3.2043,-15.3656
1496520169.9522039890,1496520169.9545269012, -1.1519,  0.0300, -0.0942, -2.1820, -3.2043,-15.3656
1496520169.9546000957,1496520169.9568789005, -1.1519,  0.0300, -0.0942, -2.1820, -3.2043,-15.3656
1496520169.9569520950,1496520169.9592320919, -1.1519,  0.0300, -0.0942, -1.9379, -2.8992,-15.3351
1496520169.9593040943,1496520169.9615941048, -1.1519,  0.0300, -0.0942, -1.9379, -2.8992,-15.3351
1496520169.9616661072,1496520169.9639511108, -1.1519,  0.0300, -0.0942, -1.9379, -2.8992,-15.3351
1496520169.9640240669,1496520169.9663109779, -1.1519,  0.0300, -0.0942, -1.9379, -2.8992,-15.3351
1496520169.9663839340,1496520169.9686710835, -1.1519,  0.0300, -0.0942, -1.9379, -2.8992,-19.2413
1496520169.9687430859,1496520169.9710249901, -1.1519,  0.0232, -0.0815, -1.9226, -2.8992,-15.7318
1496520169.9710979462,1496520169.9734399319, -1.1526,  0.0232, -0.0815, -1.9226, -2.8992,-15.7318
1496520169.9735128880,1496520169.9759180546, -1.1526,  0.0232, -0.0815, -1.9226, -2.8992,-15.7318
1496520169.9759910107,1496520169.9783980846, -1.1526,  0.0232, -0.0815, -1.9226, -2.8992,-15.7318
1496520169.9785830975,1496520169.9809999466, -1.1526,  0.0232, -0.0815, -1.9836, -1.9989,-15.4877
1496520169.9810729027,1496520169.9835259914, -1.1526,  0.0232, -0.0815, -1.9836, -1.9989,-15.4877
1496520169.9835989475,1496520169.9860060215, -1.1526,  0.0232, -0.0815, -1.9836, -1.9989,-15.4877
1496520169.9860789776,1496520169.9884870052, -1.1526,  0.0232, -0.0815, -1.9836, -1.9989,-15.4877
1496520169.9885599613,1496520169.9909689426, -1.1526,  0.0288, -0.0833, -1.3885, -1.5869,-15.1215
1496520169.9910430908,1496520169.9934570789, -1.1592,  0.0288, -0.0833, -1.3885, -1.5869,-15.1215
1496520169.9935300350,1496520169.9959340096, -1.1592,  0.0288, -0.0833, -1.3885, -1.5869,-15.1215
1496520169.9960069656,1496520169.9984109402, -1.1592,  0.0288, -0.0833, -1.3885, -1.5869,-15.1215
1496520169.9984838963,1496520170.0008940697, -1.1592,  0.0288, -0.0833, -1.3885, -1.5869,-15.0452
1496520170.0009670258,1496520170.0033829212, -1.1592,  0.0288, -0.0833, -0.8698, -2.1515,-15.0452
1496520170.0034570694,1496520170.0058660507, -1.1592,  0.0288, -0.0833, -0.8698, -2.1515,-15.0452
1496520170.0059409142,1496520170.0083498955, -1.1592,  0.0288, -0.0833, -0.8698, -2.1515,-15.0452
1496520170.0084240437,1496520170.0108239651, -1.1592,  0.0288, -0.0994, -0.8698, -2.1515,-15.0452
1496520170.0108981133,1496520170.0133171082, -1.1609,  0.0103, -0.0994, -0.9918, -1.9226,-14.7400
1496520170.0133919716,1496520170.0156719685, -1.1609,  0.0103, -0.0994, -0.9918, -1.9226,-14.7400
1496520170.0157449245,1496520170.0180220604, -1.1609,  0.0103, -0.0994, -0.9918, -1.9226,-14.7400
1496520170.0180959702,1496520170.0203828812, -1.1609,  0.0103, -0.0994, -0.9918, -1.9226,-14.7400
1496520170.0204570293,1496520170.0227770805, -1.1609,  0.0103, -0.0994, -0.7324, -1.5869,-14.4196
1496520170.0228509903,1496520170.0252580643, -1.1609,  0.0103, -0.0994, -0.7324, -1.5869,-14.4196
1496520170.0253319740,1496520170.0277431011, -1.1609,  0.0103, -0.0994, -0.7324, -1.5869,-14.4196
1496520170.0278170109,1496520170.0302250385, -1.1609,  0.0103, -0.0994, -0.7324, -1.5869,-14.4196
1496520170.0302989483,1496520170.0327510834, -1.1492,  0.0042, -0.0947, -0.7324, -1.5869,-13.7634
1496520170.0328259468,1496520170.0352311134, -1.1492,  0.0042, -0.0947, -0.3204, -1.3885,-13.7634
1496520170.0353050232,1496520170.0377120972, -1.1492,  0.0042, -0.0947, -0.3204, -1.3885,-13.7634
1496520170.0377869606,1496520170.0401999950, -1.1492,  0.0042, -0.0947, -0.3204, -1.3885,-13.7634
1496520170.0402739048,1496520170.0427269936, -1.1492,  0.0042, -0.0947, -0.3204, -1.3885,-13.7634
1496520170.0428020954,1496520170.0452079773, -1.1492,  0.0042, -0.0947, -0.2289, -0.7477,-12.8937
1496520170.0452830791,1496520170.0476949215, -1.1492,  0.0042, -0.0947, -0.2289, -0.7477,-12.8937
1496520170.0477700233,1496520170.0501770973, -1.1492,  0.0042, -0.0947, -0.2289, -0.7477,-12.8937
1496520170.0502529144,1496520170.0526649952, -1.1497, -0.0149, -0.0833, -0.2289, -0.7477,-12.8937
1496520170.0527889729,1496520170.0551979542, -1.1497, -0.0149, -0.0833,  0.3357, -0.1984,-12.3901
1496520170.0552740097,1496520170.0576770306, -1.1497, -0.0149, -0.0833,  0.3357, -0.1984,-12.3901
1496520170.0577509403,1496520170.0601670742, -1.1497, -0.0149, -0.0833,  0.3357, -0.1984,-12.3901
1496520170.0602419376,1496520170.0626590252, -1.1497, -0.0149, -0.0833,  0.3357, -0.1984,-12.3901
1496520170.0627338886,1496520170.0650169849, -1.1497, -0.0149, -0.0833,  1.3885, -0.2441,-11.3983
1496520170.0650908947,1496520170.0673770905, -1.1497, -0.0149, -0.0833,  1.3885, -0.2441,-11.3983
1496520170.0674510002,1496520170.0697278976, -1.1497, -0.0149, -0.0833,  1.3885, -0.2441,-11.3983
1496520170.0698010921,1496520170.0720889568, -1.1467, -0.0098, -0.0659,  1.3885, -0.2441,-11.3983
1496520170.0721640587,1496520170.0744628906, -1.1467, -0.0098, -0.0659,  1.3885, -0.2441,-11.3983
1496520170.0745379925,1496520170.0768198967, -1.1467, -0.0098, -0.0659,  1.7242,  0.0305,-10.5743
1496520170.0768949986,1496520170.0791831017, -1.1467, -0.0098, -0.0659,  1.7242,  0.0305,-10.5743
1496520170.0793569088,1496520170.0816400051, -1.1467, -0.0098, -0.0659,  1.7242,  0.0305,-10.5743
1496520170.0817129612,1496520170.0841341019, -1.1467, -0.0098, -0.0659,  1.7242,  0.0305,-10.5743
1496520170.0842080116,1496520170.0866200924, -1.1467, -0.0098, -0.0659,  2.0294,  0.4272,-10.3912
1496520170.0866949558,1496520170.0891020298, -1.1467, -0.0098, -0.0659,  2.0294,  0.4272,-10.3912
1496520170.0891768932,1496520170.0915870667, -1.1472, -0.0039, -0.0898,  2.0294,  0.4272,-10.3912
1496520170.0916619301,1496520170.0941131115, -1.1472, -0.0039, -0.0898,  2.0294,  0.4272,-10.3912
1496520170.0941870213,1496520170.0965878963, -1.1472, -0.0039, -0.0898,  1.6785,  0.2747, -9.3384
1496520170.0966589451,1496520170.0990710258, -1.1472, -0.0039, -0.0898,  1.6785,  0.2747, -9.3384
1496520170.0991430283,1496520170.1015410423, -1.1472, -0.0039, -0.0898,  1.6785,  0.2747, -9.3384
1496520170.1016139984,1496520170.1040298939, -1.1472, -0.0039, -0.0898,  1.6785,  0.2747, -9.3384
1496520170.1041030884,1496520170.1065111160, -1.1472, -0.0039, -0.0898,  1.6785,  0.2747, -9.4452
1496520170.1065831184,1496520170.1089909077, -1.1472, -0.0039, -0.0898,  1.1597,  0.8087, -9.4452
1496520170.1090629101,1496520170.1114759445, -1.1472,  0.0029, -0.1050,  1.1597,  0.8087, -9.4452
1496520170.1115489006,1496520170.1138970852, -1.1479,  0.0029, -0.1050,  1.1597,  0.8087, -9.4452
1496520170.1139700413,1496520170.1162569523, -1.1479,  0.0029, -0.1050,  1.1597,  0.8087, -9.4452
1496520170.1163289547,1496520170.1186170578, -1.1479,  0.0029, -0.1050,  0.5035,  0.5341, -8.7280
1496520170.1186900139,1496520170.1209690571, -1.1479,  0.0029, -0.1050,  0.5035,  0.5341, -8.7280
1496520170.1210420132,1496520170.1233770847, -1.1479,  0.0029, -0.1050,  0.5035,  0.5341, -8.7280
1496520170.1234509945,1496520170.1258618832, -1.1479,  0.0029, -0.1050,  0.5035,  0.5341, -8.7280
1496520170.1259360313,1496520170.1283390522, -1.1479,  0.0029, -0.1050, -0.1221,  0.3662, -8.0719
1496520170.1284129620,1496520170.1308259964, -1.1479,  0.0029, -0.0989, -0.1221,  0.3662, -8.0719
1496520170.1308999062,1496520170.1333470345, -1.1538, -0.0012, -0.0989, -0.1221,  0.3662, -8.0719
1496520170.1334218979,1496520170.1358349323, -1.1538, -0.0012, -0.0989, -0.1221,  0.3662, -8.0719
1496520170.1359078884,1496520170.1383221149, -1.1538, -0.0012, -0.0989, -0.1221,  0.3662, -7.5684
1496520170.1383941174,1496520170.1408059597, -1.1538, -0.0012, -0.0989,  0.0763,  0.0305, -7.5684
1496520170.1408779621,1496520170.1433320045, -1.1538, -0.0012, -0.0989,  0.0763,  0.0305, -7.5684
1496520170.1434040070,1496520170.1458148956, -1.1538, -0.0012, -0.0989,  0.0763,  0.0305, -7.5684
1496520170.1458868980,1496520170.1482970715, -1.1538, -0.0012, -0.0989,  0.0763,  0.0305, -7.5684
1496520170.1483700275,1496520170.1507790089, -1.1538, -0.0012, -0.0867,  0.5646,  0.2136, -7.3853
1496520170.1508519650,1496520170.1532649994, -1.1416, -0.0066, -0.0867,  0.5646,  0.2136, -7.3853
1496520170.1533379555,1496520170.1557459831, -1.1416, -0.0066, -0.0867,  0.5646,  0.2136, -7.3853
1496520170.1558179855,1496520170.1582291126, -1.1416, -0.0066, -0.0867,  0.5646,  0.2136, -7.3853
1496520170.1583011150,1496520170.1607079506, -1.1416, -0.0066, -0.0867,  1.1292,  0.7019, -7.5226
1496520170.1607799530,1496520170.1631729603, -1.1416, -0.0066, -0.0867,  1.1292,  0.7019, -7.5226
1496520170.1632440090,1496520170.1655359268, -1.1416, -0.0066, -0.0867,  1.1292,  0.7019, -7.5226
1496520170.1656079292,1496520170.1678891182, -1.1416, -0.0066, -0.0867,  1.1292,  0.7019, -7.5226
1496520170.1679599285,1496520170.1702470779, -1.1416, -0.0066, -0.0867,  1.1292,  0.5646, -6.7444
1496520170.1703178883,1496520170.1726169586, -1.1484, -0.0022, -0.0994,  0.9155,  0.5646, -6.7444
1496520170.1726880074,1496520170.1750950813, -1.1484, -0.0022, -0.0994,  0.9155,  0.5646, -6.7444
1496520170.1751670837,1496520170.1775779724, -1.1484, -0.0022, -0.0994,  0.9155,  0.5646, -6.7444
1496520170.1776490211,1496520170.1800539494, -1.1484, -0.0022, -0.0994,  0.9155,  0.5646, -6.7444
1496520170.1801259518,1496520170.1825399399, -1.1484, -0.0022, -0.0994,  0.1831,  0.7629, -6.1951
1496520170.1827199459,1496520170.1851348877, -1.1484, -0.0022, -0.0994,  0.1831,  0.7629, -6.1951
1496520170.1852068901,1496520170.1876149178, -1.1484, -0.0022, -0.0994,  0.1831,  0.7629, -6.1951
1496520170.1876869202,1496520170.1900970936, -1.1484, -0.0022, -0.0994,  0.1831,  0.7629, -6.1951
1496520170.1901690960,1496520170.1925849915, -1.1443, -0.0034, -0.0823, -0.9918,  0.2441, -5.0049
1496520170.1926579475,1496520170.1950659752, -1.1443, -0.0034, -0.0823, -0.9918,  0.2441, -5.0049
1496520170.1951379776,1496520170.1975479126, -1.1443, -0.0034, -0.0823, -0.9918,  0.2441, -5.0049
1496520170.1976199150,1496520170.2000300884, -1.1443, -0.0034, -0.0823, -0.9918,  0.2441, -5.0049
1496520170.2001008987,1496520170.2025411129, -1.1443, -0.0034, -0.0823, -2.3346,  0.1221, -5.0659
1496520170.2026131153,1496520170.2050249577, -1.1443, -0.0034, -0.0823, -2.3346,  0.1221, -5.0659
1496520170.2050960064,1496520170.2075018883, -1.1443, -0.0034, -0.0823, -2.3346,  0.1221, -5.0659
1496520170.2075729370,1496520170.2099809647, -1.1443, -0.0034, -0.0823, -2.3346,  0.1221, -5.0659
1496520170.2100529671,1496520170.2124559879, -1.1519, -0.0005, -0.1050, -2.3346, -0.0610, -4.0741
1496520170.2125980854,1496520170.2148818970, -1.1519, -0.0005, -0.1050, -3.1738, -0.0610, -4.0741
1496520170.2149538994,1496520170.2172410488, -1.1519, -0.0005, -0.1050, -3.1738, -0.0610, -4.0741
1496520170.2173130512,1496520170.2195909023, -1.1519, -0.0005, -0.1050, -3.1738, -0.0610, -4.0741
1496520170.2196619511,1496520170.2219429016, -1.1519, -0.0005, -0.1050, -3.1738, -0.0610, -4.0741
1496520170.2220129967,1496520170.2243061066, -1.1519, -0.0005, -0.1050, -4.4708, -0.2289, -3.5553
1496520170.2243769169,1496520170.2266581059, -1.1519, -0.0005, -0.1050, -4.4708, -0.2289, -3.5553
1496520170.2267301083,1496520170.2290189266, -1.1519, -0.0005, -0.1050, -4.4708, -0.2289, -3.5553
1496520170.2290899754,1496520170.2313740253, -1.1519, -0.0054, -0.1074, -4.4708, -0.2289, -3.5553
1496520170.2314460278,1496520170.2337980270, -1.1621, -0.0054, -0.1074, -4.4708, -0.1373, -3.1738
1496520170.2338690758,1496520170.2362759113, -1.1621, -0.0054, -0.1074, -5.0507, -0.1373, -3.1738
1496520170.2363469601,1496520170.2387549877, -1.1621, -0.0054, -0.1074, -5.0507, -0.1373, -3.1738
1496520170.2388260365,1496520170.2412340641, -1.1621, -0.0054, -0.1074, -5.0507, -0.1373, -3.1738
1496520170.2413060665,1496520170.2437241077, -1.1621, -0.0054, -0.1074, -5.0507, -0.1373, -2.3346
1496520170.2437949181,1496520170.2462029457, -1.1621, -0.0054, -0.1074, -5.1422, -0.6104, -2.3346
1496520170.2462739944,1496520170.2486839294, -1.1621, -0.0054, -0.1074, -5.1422, -0.6104, -2.3346
1496520170.2487559319,1496520170.2511620522, -1.1621, -0.0054, -0.1033, -5.1422, -0.6104, -2.3346
1496520170.2512331009,1496520170.2536480427, -1.1450, -0.0188, -0.1033, -5.1422, -0.6104, -2.3346
1496520170.2537190914,1496520170.2561318874, -1.1450, -0.0188, -0.1033, -4.4250, -0.4578, -1.7395
1496520170.2562029362,1496520170.2586081028, -1.1450, -0.0188, -0.1033, -4.4250, -0.4578, -1.7395
1496520170.2586789131,1496520170.2610869408, -1.1450, -0.0188, -0.1033, -4.4250, -0.4578, -1.7395
1496520170.2611579895,1496520170.2635760307, -1.1450, -0.0188, -0.1033, -4.4250, -0.4578, -1.7395
1496520170.2636480331,1496520170.2660520077, -1.1450, -0.0188, -0.1033, -2.6703, -0.2899, -1.6022
1496520170.2661240101,1496520170.2685270309, -1.1450, -0.0188, -0.1033, -2.6703, -0.2899, -1.6022
1496520170.2685980797,1496520170.2709999084, -1.1450, -0.0188, -0.1013, -2.6703, -0.2899, -1.6022
1496520170.2710709572,1496520170.2735259533, -1.1489, -0.0154, -0.1013, -2.6703, -0.2899, -1.6022
1496520170.2735979557,1496520170.2758851051, -1.1489, -0.0154, -0.1013, -2.6703, -0.4730, -1.7395
1496520170.2759559155,1496520170.2782390118, -1.1489, -0.0154, -0.1013, -1.8921, -0.4730, -1.7395
1496520170.2783091068,1496520170.2805919647, -1.1489, -0.0154, -0.1013, -1.8921, -0.4730, -1.7395
1496520170.2806630135,1496520170.2829790115, -1.1489, -0.0154, -0.1013, -1.8921, -0.4730, -1.7395
1496520170.2830491066,1496520170.2854530811, -1.1489, -0.0154, -0.1013, -1.8921, -0.4730, -1.7395
1496520170.2856299877,1496520170.2880449295, -1.1489, -0.0154, -0.1013, -0.5798, -1.0529, -1.1902
1496520170.2881159782,1496520170.2905280590, -1.1489, -0.0154, -0.1013, -0.5798, -1.0529, -1.1902
1496520170.2905979156,1496520170.2930169106, -1.1602,  0.0024, -0.1184, -0.5798, -1.0529, -1.1902
1496520170.2930889130,1496520170.2954969406, -1.1602,  0.0024, -0.1184, -0.5798, -1.0529, -1.1902
1496520170.2955689430,1496520170.2979779243, -1.1602,  0.0024, -0.1184, -0.4120, -0.9613, -1.0071
1496520170.2980499268,1496520170.3009319305, -1.1602,  0.0024, -0.1184, -0.4120, -0.9613, -1.0071
1496520170.3010060787,1496520170.3035340309, -1.1602,  0.0024, -0.1184, -0.4120, -0.9613, -1.0071
1496520170.3036069870,1496520170.3058860302, -1.1602,  0.0024, -0.1184, -0.4120, -0.9613, -1.0071
1496520170.3059580326,1496520170.3082389832, -1.1602,  0.0024, -0.1184, -0.6866, -0.0763, -0.5646
1496520170.3083109856,1496520170.3105900288, -1.1602,  0.0024, -0.1184, -0.6866, -0.0763, -0.5646
1496520170.3106629848,1496520170.3130240440, -1.1492,  0.0134, -0.0999, -0.6866, -0.0763, -0.5646
1496520170.3130960464,1496520170.3153789043, -1.1492,  0.0134, -0.0999, -0.6866, -0.0763, -0.5646
1496520170.3154520988,1496520170.3177320957, -1.1492,  0.0134, -0.0999, -0.6866, -0.0763, -0.3052
1496520170.3178040981,1496520170.3200869560, -1.1492,  0.0134, -0.0999, -1.1902, -0.3204, -0.3052
1496520170.3201570511,1496520170.3224411011, -1.1492,  0.0134, -0.0999, -1.1902, -0.3204, -0.3052
1496520170.3225789070,1496520170.3248629570, -1.1492,  0.0134, -0.0999, -1.1902, -0.3204, -0.3052
1496520170.3249340057,1496520170.3272240162, -1.1492,  0.0134, -0.0999, -1.1902, -0.3204, -0.3052
1496520170.3272950649,1496520170.3295719624, -1.1492,  0.0134, -0.0999, -3.2196, -0.5798,  0.1526
1496520170.3296430111,1496520170.3319189548, -1.1489,  0.0100, -0.1084, -3.2196, -0.5798,  0.1526
1496520170.3319900036,1496520170.3342909813, -1.1489,  0.0100, -0.1084, -3.2196, -0.5798,  0.1526
1496520170.3343629837,1496520170.3366420269, -1.1489,  0.0100, -0.1084, -3.2196, -0.5798,  0.1526
1496520170.3367130756,1496520170.3389930725, -1.1489,  0.0100, -0.1084, -3.2196, -0.5798,  0.9308
1496520170.3390650749,1496520170.3413479328, -1.1489,  0.0100, -0.1084, -4.0741, -0.7172,  0.9308
1496520170.3414199352,1496520170.3437869549, -1.1489,  0.0100, -0.1084, -4.0741, -0.7172,  0.9308
1496520170.3438589573,1496520170.3462719917, -1.1489,  0.0100, -0.1084, -4.0741, -0.7172,  0.9308
1496520170.3463439941,1496520170.3487548828, -1.1489,  0.0100, -0.1084, -4.0741, -0.7172,  0.9308
1496520170.3488268852,1496520170.3512380123, -1.1489,  0.0100, -0.1008, -4.3793, -0.8698,  1.8005
1496520170.3513090611,1496520170.3537380695, -1.1516, -0.0061, -0.1008, -4.3793, -0.8698,  1.8005
1496520170.3538110256,1496520170.3562209606, -1.1516, -0.0061, -0.1008, -4.3793, -0.8698,  1.8005
1496520170.3562939167,1496520170.3587000370, -1.1516, -0.0061, -0.1008, -4.3793, -0.8698,  1.8005
1496520170.3587720394,1496520170.3611910343, -1.1516, -0.0061, -0.1008, -3.9825, -1.0529,  2.5635
1496520170.3612608910,1496520170.3636689186, -1.1516, -0.0061, -0.1008, -3.9825, -1.0529,  2.5635
1496520170.3637399673,1496520170.3661549091, -1.1516, -0.0061, -0.1008, -3.9825, -1.0529,  2.5635
1496520170.3662250042,1496520170.3686330318, -1.1516, -0.0061, -0.1008, -3.9825, -1.0529,  2.5635
1496520170.3687040806,1496520170.3711090088, -1.1516, -0.0061, -0.1633, -3.9825, -1.5106,  3.3112
1496520170.3711800575,1496520170.3735489845, -1.1477, -0.0081, -0.1260, -3.5248, -1.5106,  3.3112
1496520170.3736200333,1496520170.3759078979, -1.1477, -0.0081, -0.1260, -3.5248, -1.5106,  3.3112
1496520170.3759789467,1496520170.3782649040, -1.1477, -0.0081, -0.1260, -3.5248, -1.5106,  3.3112
1496520170.3783359528,1496520170.3806281090, -1.1477, -0.0081, -0.1260, -3.5248, -1.5106,  3.3112
1496520170.3806979656,1496520170.3830170631, -1.1477, -0.0081, -0.1260, -3.2349, -2.0752,  4.3182
1496520170.3830869198,1496520170.3854858875, -1.1477, -0.0081, -0.1260, -3.2349, -2.0752,  4.3182
1496520170.3855559826,1496520170.3879520893, -1.1477, -0.0081, -0.1260, -3.2349, -2.0752,  4.3182
1496520170.3881309032,1496520170.3905301094, -1.1477, -0.0081, -0.1260, -3.2349, -2.0752,  4.3182
1496520170.3905999660,1496520170.3930120468, -1.1484,  0.0063, -0.0962, -3.1128, -1.4038,  4.6844
1496520170.3930819035,1496520170.3954761028, -1.1484,  0.0063, -0.0962, -3.1128, -1.4038,  4.6844
1496520170.3955459595,1496520170.3979399204, -1.1484,  0.0063, -0.0962, -3.1128, -1.4038,  4.6844
1496520170.3980100155,1496520170.4004120827, -1.1484,  0.0063, -0.0962, -3.1128, -1.4038,  4.6844
1496520170.4004819393,1496520170.4029231071, -1.1484,  0.0063, -0.0962, -3.1128, -0.9155,  5.5084
1496520170.4029939175,1496520170.4053919315, -1.1484,  0.0063, -0.0962, -3.4943, -0.9155,  5.5084
1496520170.4054639339,1496520170.4078578949, -1.1484,  0.0063, -0.0962, -3.4943, -0.9155,  5.5084
1496520170.4079298973,1496520170.4103240967, -1.1484,  0.0063, -0.0962, -3.4943, -0.9155,  5.5084
1496520170.4103970528,1496520170.4128050804, -1.1479,  0.0168, -0.0984, -3.4943, -0.9155,  6.5765
1496520170.4128749371,1496520170.4152679443, -1.1479,  0.0168, -0.0984, -4.1656, -1.3428,  6.5765
1496520170.4153370857,1496520170.4177300930, -1.1479,  0.0168, -0.0984, -4.1656, -1.3428,  6.5765
1496520170.4177989960,1496520170.4202029705, -1.1479,  0.0168, -0.0984, -4.1656, -1.3428,  6.5765
1496520170.4202721119,1496520170.4226610661, -1.1479,  0.0168, -0.0984, -4.1656, -1.3428,  6.5765
1496520170.4227309227,1496520170.4250230789, -1.1479,  0.0168, -0.0984, -5.1880, -0.9308,  7.1716
1496520170.4250929356,1496520170.4276559353, -1.1479,  0.0168, -0.0984, -5.1880, -0.9308,  7.1716
1496520170.4277288914,1496520170.4300100803, -1.1479,  0.0168, -0.0984, -5.1880, -0.9308,  7.1716
1496520170.4300808907,1496520170.4323639870, -1.1484,  0.0120, -0.1133, -5.1880, -0.9308,  7.1716
1496520170.4324359894,1496520170.4348518848, -1.1484,  0.0120, -0.1133, -5.9509, -1.1139,  8.1635
1496520170.4349229336,1496520170.4372050762, -1.1484,  0.0120, -0.1133, -5.9509, -1.1139,  8.1635
1496520170.4372758865,1496520170.4395649433, -1.1484,  0.0120, -0.1133, -5.9509, -1.1139,  8.1635
1496520170.4396359921,1496520170.4419169426, -1.1484,  0.0120, -0.1133, -5.9509, -1.1139,  8.1635
1496520170.4419879913,1496520170.4443409443, -1.1484,  0.0120, -0.1133, -5.9509, -1.1139,  8.1635
1496520170.4444119930,1496520170.4466938972, -1.1484,  0.0120, -0.1133, -6.1646, -0.9460,  9.0027
1496520170.4467670918,1496520170.4490489960, -1.1484,  0.0120, -0.1133, -6.1646, -0.9460,  9.0027
1496520170.4491219521,1496520170.4514110088, -1.1484,  0.0120, -0.1084, -6.1646, -0.9460,  9.0027
1496520170.4514839649,1496520170.4537699223, -1.1570,  0.0181, -0.1084, -6.1646, -0.9460,  9.0027
1496520170.4538419247,1496520170.4561259747, -1.1570,  0.0181, -0.1084, -6.8665, -1.2817,  9.9182
1496520170.4561979771,1496520170.4584789276, -1.1570,  0.0181, -0.1084, -6.8665, -1.2817,  9.9182
1496520170.4585509300,1496520170.4608340263, -1.1570,  0.0181, -0.1084, -6.8665, -1.2817,  9.9182
1496520170.4609050751,1496520170.4631969929, -1.1570,  0.0181, -0.1084, -6.8665, -1.2817,  9.9182
1496520170.4632680416,1496520170.4655480385, -1.1570,  0.0181, -0.1084, -6.8665, -1.2817,  9.9182
1496520170.4656190872,1496520170.4679000378, -1.1570,  0.0181, -0.1084, -7.4768, -1.7548, 11.2457
1496520170.4679739475,1496520170.4702539444, -1.1570,  0.0181, -0.1084, -7.4768, -1.7548, 11.2457
1496520170.4703290462,1496520170.4726119041, -1.1482,  0.0212, -0.1023, -7.4768, -1.7548, 11.2457
1496520170.4726850986,1496520170.4749710560, -1.1482,  0.0212, -0.1023, -7.4768, -1.7548, 11.2457
1496520170.4750449657,1496520170.4773340225, -1.1482,  0.0212, -0.1023, -7.3853, -1.4648, 12.4664
1496520170.4774069786,1496520170.4796841145, -1.1482,  0.0212, -0.1023, -7.3853, -1.4648, 12.4664
1496520170.4797570705,1496520170.4820470810, -1.1482,  0.0212, -0.1023, -7.3853, -1.4648, 12.4664
1496520170.4821209908,1496520170.4845581055, -1.1482,  0.0212, -0.1023, -7.3853, -1.4648, 12.4664
1496520170.4846320152,1496520170.4870450497, -1.1482,  0.0212, -0.1023, -7.3853, -1.4648, 13.3209
1496520170.4871180058,1496520170.4895300865, -1.1482,  0.0212, -0.1023, -7.2327, -1.8921, 13.3209
1496520170.4897129536,1496520170.4921219349, -1.1482,  0.0259, -0.1265, -7.2327, -1.8921, 13.3209
1496520170.4921960831,1496520170.4946110249, -1.1511,  0.0259, -0.1265, -7.2327, -1.8921, 13.3209
1496520170.4946849346,1496520170.4970989227, -1.1511,  0.0259, -0.1265, -7.2327, -1.8921, 13.3209
1496520170.4971721172,1496520170.4995820522, -1.1511,  0.0259, -0.1265, -6.4545, -1.4343, 14.5874
1496520170.4996550083,1496520170.5020639896, -1.1511,  0.0259, -0.1265, -6.4545, -1.4343, 14.5874
1496520170.5021369457,1496520170.5045540333, -1.1511,  0.0259, -0.1265, -6.4545, -1.4343, 14.5874
1496520170.5046279430,1496520170.5070381165, -1.1511,  0.0259, -0.1265, -6.4545, -1.4343, 14.5874
1496520170.5071120262,1496520170.5095219612, -1.1511,  0.0259, -0.1265, -6.5155, -1.6022, 15.2435
1496520170.5095961094,1496520170.5120038986, -1.1511,  0.0334, -0.0916, -6.5155, -1.6022, 15.2435
1496520170.5120780468,1496520170.5145521164, -1.1450,  0.0334, -0.0916, -6.5155, -1.6022, 15.2435
1496520170.5146250725,1496520170.5170381069, -1.1450,  0.0334, -0.0916, -6.5155, -1.6022, 15.2435
1496520170.5171110630,1496520170.5195159912, -1.1450,  0.0334, -0.0916, -6.4850, -1.9379, 17.0441
1496520170.5195910931,1496520170.5220050812, -1.1450,  0.0334, -0.0916, -6.4850, -1.9379, 17.0441
1496520170.5220799446,1496520170.5244319439, -1.1450,  0.0334, -0.0916, -6.4850, -1.9379, 17.0441
1496520170.5245060921,1496520170.5267961025, -1.1450,  0.0334, -0.0916, -6.4850, -1.9379, 17.0441
1496520170.5268690586,1496520170.5291590691, -1.1450,  0.0334, -0.0916, -6.4850, -1.9379, 17.7917
1496520170.5292329788,1496520170.5315189362, -1.1450,  0.0334, -0.0955, -5.8136, -1.2817, 17.7917
1496520170.5315930843,1496520170.5340991020, -1.1541,  0.0396, -0.0955, -5.8136, -1.2817, 17.7917
1496520170.5341739655,1496520170.5364658833, -1.1541,  0.0396, -0.0955, -5.8136, -1.2817, 17.7917
1496520170.5365400314,1496520170.5388250351, -1.1541,  0.0396, -0.0955, -5.8136, -1.2817, 17.7917
1496520170.5388989449,1496520170.5411899090, -1.1541,  0.0396, -0.0955, -4.6997, -1.5106, 18.6768
1496520170.5412640572,1496520170.5437169075, -1.1541,  0.0396, -0.0955, -4.6997, -1.5106, 18.6768
1496520170.5437920094,1496520170.5461659431, -1.1541,  0.0396, -0.0955, -4.6997, -1.5106, 18.6768
1496520170.5462400913,1496520170.5486459732, -1.1541,  0.0396, -0.0955, -4.6997, -1.5106, 18.6768
1496520170.5487198830,1496520170.5511140823, -1.1541,  0.0396, -0.0955, -2.9755, -1.6937, 18.9514
1496520170.5511879921,1496520170.5538980961, -1.1497,  0.0552, -0.0786, -2.9755, -1.6937, 18.9514
1496520170.5539751053,1496520170.5562639236, -1.1497,  0.0552, -0.0786, -2.9755, -1.6937, 18.9514
1496520170.5563380718,1496520170.5586249828, -1.1497,  0.0552, -0.0786, -2.9755, -1.6937, 18.9514
1496520170.5586969852,1496520170.5609869957, -1.1497,  0.0552, -0.0786, -2.9755, -1.6937, 18.6310
1496520170.5610599518,1496520170.5634291172, -1.1497,  0.0552, -0.0786, -1.7395, -1.1597, 18.6310
1496520170.5635039806,1496520170.5657889843, -1.1497,  0.0552, -0.0786, -1.7395, -1.1597, 18.6310
1496520170.5658628941,1496520170.5681509972, -1.1497,  0.0552, -0.0786, -1.7395, -1.1597, 18.6310
1496520170.5682239532,1496520170.5705039501, -1.1497,  0.0552, -0.0786, -1.7395, -1.1597, 18.6310
1496520170.5705769062,1496520170.5729110241, -1.1477,  0.0742, -0.0864, -0.4883, -0.2594, 18.1732
1496520170.5729870796,1496520170.5752730370, -1.1477,  0.0742, -0.0864, -0.4883, -0.2594, 18.1732
1496520170.5753490925,1496520170.5776319504, -1.1477,  0.0742, -0.0864, -0.4883, -0.2594, 18.1732
1496520170.5777060986,1496520170.5799961090, -1.1477,  0.0742, -0.0864, -0.4883, -0.2594, 18.1732
1496520170.5800709724,1496520170.5823531151, -1.1477,  0.0742, -0.0864, -0.4883,  1.0986, 17.0288
1496520170.5824270248,1496520170.5847148895, -1.1477,  0.0742, -0.0864,  0.5493,  1.0986, 17.0288
1496520170.5847880840,1496520170.5870759487, -1.1477,  0.0742, -0.0864,  0.5493,  1.0986, 17.0288
1496520170.5871489048,1496520170.5895619392, -1.1477,  0.0742, -0.0864,  0.5493,  1.0986, 17.0288
1496520170.5897610188,1496520170.5920460224, -1.1477,  0.0752, -0.1023,  0.5493,  1.0986, 17.0288
1496520170.5921208858,1496520170.5947248936, -1.1421,  0.0752, -0.1023,  2.0905,  2.4719, 15.6708
1496520170.5948090553,1496520170.5976269245, -1.1421,  0.0752, -0.1023,  2.0905,  2.4719, 15.6708
1496520170.5977048874,1496520170.6001939774, -1.1421,  0.0752, -0.1023,  2.0905,  2.4719, 15.6708
1496520170.6002709866,1496520170.6026699543, -1.1421,  0.0752, -0.1023,  2.0905,  2.4719, 15.6708
1496520170.6027441025,1496520170.6051208973, -1.1421,  0.0752, -0.1023,  4.6844,  1.8311, 14.0991
1496520170.6051969528,1496520170.6075611115, -1.1421,  0.0752, -0.1023,  4.6844,  1.8311, 14.0991
1496520170.6076350212,1496520170.6100571156, -1.1421,  0.0752, -0.1023,  4.6844,  1.8311, 14.0991
1496520170.6101329327,1496520170.6125609875, -1.1421,  0.0908, -0.0918,  4.6844,  1.8311, 14.0991
1496520170.6126348972,1496520170.6150410175, -1.1423,  0.0908, -0.0918,  6.4392,  1.8158, 13.4583
1496520170.6151149273,1496520170.6175279617, -1.1423,  0.0908, -0.0918,  6.4392,  1.8158, 13.4583
1496520170.6176021099,1496520170.6200139523, -1.1423,  0.0908, -0.0918,  6.4392,  1.8158, 13.4583
1496520170.6200869083,1496520170.6225330830, -1.1423,  0.0908, -0.0918,  6.4392,  1.8158, 13.4583
1496520170.6226069927,1496520170.6248989105, -1.1423,  0.0908, -0.0918,  6.4392,  2.1667, 12.6648
1496520170.6249709129,1496520170.6272559166, -1.1423,  0.0908, -0.0918,  7.6294,  2.1667, 12.6648
1496520170.6273279190,1496520170.6296141148, -1.1423,  0.0908, -0.0918,  7.6294,  2.1667, 12.6648
1496520170.6296870708,1496520170.6319770813, -1.1423,  0.0908, -0.1147,  7.6294,  2.1667, 12.6648
1496520170.6320500374,1496520170.6343460083, -1.1482,  0.1106, -0.1147,  7.6294,  2.1667, 12.6648
1496520170.6344199181,1496520170.6367080212, -1.1482,  0.1106, -0.1147,  7.1411,  2.2583, 11.1847
1496520170.6367819309,1496520170.6390669346, -1.1482,  0.1106, -0.1147,  7.1411,  2.2583, 11.1847
1496520170.6391398907,1496520170.6414248943, -1.1482,  0.1106, -0.1147,  7.1411,  2.2583, 11.1847
1496520170.6414990425,1496520170.6438210011, -1.1482,  0.1106, -0.1147,  7.1411,  2.2583, 11.1847
1496520170.6438949108,1496520170.6461839676, -1.1482,  0.1106, -0.1147,  5.9967,  2.0752,  9.5825
1496520170.6462540627,1496520170.6485419273, -1.1482,  0.1106, -0.1147,  5.9967,  2.0752,  9.5825
1496520170.6486129761,1496520170.6509048939, -1.1482,  0.1106, -0.1147,  5.9967,  2.0752,  9.5825
1496520170.6509759426,1496520170.6534450054, -1.1428,  0.1519, -0.1138,  5.9967,  2.0752,  9.5825
1496520170.6535160542,1496520170.6559140682, -1.1428,  0.1519, -0.1138,  5.9967,  2.0752,  7.0343
1496520170.6559851170,1496520170.6583750248, -1.1428,  0.1519, -0.1138,  4.4861,  1.3885,  7.0343
1496520170.6584448814,1496520170.6608450413, -1.1428,  0.1519, -0.1138,  4.4861,  1.3885,  7.0343
1496520170.6609148979,1496520170.6633229256, -1.1428,  0.1519, -0.1138,  4.4861,  1.3885,  7.0343
1496520170.6633930206,1496520170.6657879353, -1.1428,  0.1519, -0.1138,  4.4861,  1.3885,  7.0343
1496520170.6658580303,1496520170.6682529449, -1.1428,  0.1519, -0.1138,  2.9449,  0.9003,  4.6997
1496520170.6683239937,1496520170.6707220078, -1.1428,  0.1519, -0.1138,  2.9449,  0.9003,  4.6997
1496520170.6707940102,1496520170.6731719971, -1.1448,  0.1575, -0.1169,  2.9449,  0.9003,  4.6997
1496520170.6732439995,1496520170.6755349636, -1.1448,  0.1575, -0.1169,  2.9449,  0.9003,  4.6997
1496520170.6756050587,1496520170.6781270504, -1.1448,  0.1575, -0.1169,  0.7477, -0.0305,  2.0905
1496520170.6782009602,1496520170.6804809570, -1.1448,  0.1575, -0.1169,  0.7477, -0.0305,  2.0905
1496520170.6805529594,1496520170.6829578876, -1.1448,  0.1575, -0.1169,  0.7477, -0.0305,  2.0905
1496520170.6830298901,1496520170.6853110790, -1.1448,  0.1575, -0.1169,  0.7477, -0.0305,  2.0905
1496520170.6853830814,1496520170.6876609325, -1.1448,  0.1575, -0.1169,  0.7477, -0.0305,  0.3052
1496520170.6877329350,1496520170.6900188923, -1.1448,  0.1575, -0.1169, -0.5341, -1.3123,  0.3052
1496520170.6900899410,1496520170.6923658848, -1.1448,  0.1475, -0.1311, -0.5341, -1.3123,  0.3052
1496520170.6926760674,1496520170.6949629784, -1.1462,  0.1475, -0.1311, -0.5341, -1.3123,  0.3052
1496520170.6950349808,1496520170.6973149776, -1.1462,  0.1475, -0.1311, -0.5341, -1.3123,  0.3052
1496520170.6973860264,1496520170.6996710300, -1.1462,  0.1475, -0.1311, -1.3580, -1.9531, -1.8768
1496520170.6997399330,1496520170.7020239830, -1.1462,  0.1475, -0.1311, -1.3580, -1.9531, -1.8768
1496520170.7020919323,1496520170.7044270039, -1.1462,  0.1475, -0.1311, -1.3580, -1.9531, -1.8768
1496520170.7044949532,1496520170.7067759037, -1.1462,  0.1475, -0.1311, -1.3580, -1.9531, -1.8768
1496520170.7068450451,1496520170.7091290951, -1.1462,  0.1475, -0.1311, -1.3580, -1.9531, -3.5248
1496520170.7091979980,1496520170.7114760876, -1.1462,  0.1475, -0.1311, -2.3956, -2.6245, -3.5248
1496520170.7115449905,1496520170.7138960361, -1.1516,  0.1174, -0.1245, -2.3956, -2.6245, -3.5248
1496520170.7139649391,1496520170.7162470818, -1.1516,  0.1174, -0.1245, -2.3956, -2.6245, -3.5248
1496520170.7163169384,1496520170.7185990810, -1.1516,  0.1174, -0.1245, -2.3956, -2.6245, -3.5248
1496520170.7186689377,1496520170.7209570408, -1.1516,  0.1174, -0.1245, -1.8311, -3.1433, -4.8828
1496520170.7210280895,1496520170.7233440876, -1.1516,  0.1174, -0.1245, -1.8311, -3.1433, -4.8828
1496520170.7234139442,1496520170.7257010937, -1.1516,  0.1174, -0.1245, -1.8311, -3.1433, -4.8828
1496520170.7257709503,1496520170.7280590534, -1.1516,  0.1174, -0.1245, -1.8311, -3.1433, -4.8828
1496520170.7281279564,1496520170.7304089069, -1.1516,  0.1174, -0.1245, -1.8311, -3.2196, -5.8136
1496520170.7304790020,1496520170.7328031063, -1.1599,  0.1182, -0.1155, -1.3428, -3.2196, -5.8136
1496520170.7328739166,1496520170.7352819443, -1.1599,  0.1182, -0.1155, -1.3428, -3.2196, -5.8136
1496520170.7353510857,1496520170.7377560139, -1.1599,  0.1182, -0.1155, -1.3428, -3.2196, -5.8136
1496520170.7378261089,1496520170.7402379513, -1.1599,  0.1182, -0.1155, -1.3428, -3.2196, -5.8136
1496520170.7403080463,1496520170.7427229881, -1.1599,  0.1182, -0.1155, -0.9766, -3.8147, -6.8970
1496520170.7427949905,1496520170.7452020645, -1.1599,  0.1182, -0.1155, -0.9766, -3.8147, -6.8970
1496520170.7452731133,1496520170.7476930618, -1.1599,  0.1182, -0.1155, -0.9766, -3.8147, -6.8970
1496520170.7477641106,1496520170.7501718998, -1.1599,  0.1182, -0.1155, -0.9766, -3.8147, -6.8970
1496520170.7502429485,1496520170.7526569366, -1.1599,  0.1021, -0.1030, -1.1444, -3.2806, -6.7444
1496520170.7527279854,1496520170.7551319599, -1.1365,  0.1021, -0.1030, -1.1444, -3.2806, -6.7444
1496520170.7552020550,1496520170.7576138973, -1.1365,  0.1021, -0.1030, -1.1444, -3.2806, -6.7444
1496520170.7576839924,1496520170.7601020336, -1.1365,  0.1021, -0.1030, -1.1444, -3.2806, -6.7444
1496520170.7601718903,1496520170.7625899315, -1.1365,  0.1021, -0.1030, -1.4038, -3.3722, -6.3324
1496520170.7626609802,1496520170.7650740147, -1.1365,  0.1021, -0.1030, -1.4038, -3.3722, -6.3324
1496520170.7651450634,1496520170.7675600052, -1.1365,  0.1021, -0.1030, -1.4038, -3.3722, -6.3324
1496520170.7676310539,1496520170.7700400352, -1.1365,  0.1021, -0.1030, -1.4038, -3.3722, -6.3324
1496520170.7701110840,1496520170.7725279331, -1.1365,  0.1130, -0.0947, -1.4038, -3.3722, -6.3782
1496520170.7725989819,1496520170.7748880386, -1.1355,  0.1130, -0.0947, -1.9684, -3.5400, -6.3782
1496520170.7749578953,1496520170.7772409916, -1.1355,  0.1130, -0.0947, -1.9684, -3.5400, -6.3782
1496520170.7773110867,1496520170.7796020508, -1.1355,  0.1130, -0.0947, -1.9684, -3.5400, -6.3782
1496520170.7796709538,1496520170.7819540501, -1.1355,  0.1130, -0.0947, -1.9684, -3.5400, -6.3782
1496520170.7820239067,1496520170.7844290733, -1.1355,  0.1130, -0.0947, -3.0975, -3.2959, -5.7983
1496520170.7844989300,1496520170.7869040966, -1.1355,  0.1130, -0.0947, -3.0975, -3.2959, -5.7983
1496520170.7869739532,1496520170.7893719673, -1.1355,  0.1130, -0.0947, -3.0975, -3.2959, -5.7983
1496520170.7894420624,1496520170.7918410301, -1.1355,  0.1130, -0.0947, -3.0975, -3.2959, -5.7983
1496520170.7919108868,1496520170.7943320274, -1.1401,  0.1096, -0.1035, -3.9673, -3.3264, -5.6305
1496520170.7945110798,1496520170.7969129086, -1.1401,  0.1096, -0.1035, -3.9673, -3.3264, -5.6305
1496520170.7969839573,1496520170.7993829250, -1.1401,  0.1096, -0.1035, -3.9673, -3.3264, -5.6305
1496520170.7994530201,1496520170.8018510342, -1.1401,  0.1096, -0.1035, -3.9673, -3.3264, -5.6305
1496520170.8019208908,1496520170.8044760227, -1.1401,  0.1096, -0.1035, -3.9673, -2.9449, -5.8594
1496520170.8045489788,1496520170.8068349361, -1.1401,  0.1096, -0.1035, -4.2572, -2.9449, -5.8594
1496520170.8069050312,1496520170.8091800213, -1.1401,  0.1096, -0.1035, -4.2572, -2.9449, -5.8594
1496520170.8092501163,1496520170.8115339279, -1.1401,  0.1096, -0.1035, -4.2572, -2.9449, -5.8594
1496520170.8116040230,1496520170.8140869141, -1.1460,  0.1069, -0.1104, -4.2572, -2.9449, -5.8594
1496520170.8141570091,1496520170.8164420128, -1.1460,  0.1069, -0.1104, -4.5929, -3.5706, -5.5084
1496520170.8165121078,1496520170.8187959194, -1.1460,  0.1069, -0.1104, -4.5929, -3.5706, -5.5084
1496520170.8188669682,1496520170.8211500645, -1.1460,  0.1069, -0.1104, -4.5929, -3.5706, -5.5084
1496520170.8212199211,1496520170.8235778809, -1.1460,  0.1069, -0.1104, -4.5929, -3.5706, -5.5084
1496520170.8236470222,1496520170.8259320259, -1.1460,  0.1069, -0.1104, -4.3030, -3.4180, -5.3253
1496520170.8260018826,1496520170.8282849789, -1.1460,  0.1069, -0.1104, -4.3030, -3.4180, -5.3253
1496520170.8283550739,1496520170.8306379318, -1.1460,  0.1069, -0.1104, -4.3030, -3.4180, -5.3253
1496520170.8307080269,1496520170.8329939842, -1.1394,  0.1057, -0.1116, -4.3030, -3.4180, -5.3253
1496520170.8330628872,1496520170.8353450298, -1.1394,  0.1057, -0.1116, -4.3030, -3.4180, -5.3253
1496520170.8354148865,1496520170.8377029896, -1.1394,  0.1057, -0.1116, -3.8605, -2.6703, -4.7913
1496520170.8377730846,1496520170.8400499821, -1.1394,  0.1057, -0.1116, -3.8605, -2.6703, -4.7913
1496520170.8401200771,1496520170.8423969746, -1.1394,  0.1057, -0.1116, -3.8605, -2.6703, -4.7913
1496520170.8424661160,1496520170.8447859287, -1.1394,  0.1057, -0.1116, -3.8605, -2.6703, -4.7913
1496520170.8448560238,1496520170.8471388817, -1.1394,  0.1057, -0.1116, -4.1809, -2.8534, -4.7455
1496520170.8472080231,1496520170.8494899273, -1.1394,  0.1057, -0.1116, -4.1809, -2.8534, -4.7455
1496520170.8495600224,1496520170.8518369198, -1.1394,  0.1057, -0.1116, -4.1809, -2.8534, -4.7455
1496520170.8519070148,1496520170.8543410301, -1.1382,  0.1069, -0.0867, -4.1809, -2.8534, -4.7455
1496520170.8544108868,1496520170.8568239212, -1.1382,  0.1069, -0.0867, -4.1809, -2.8534, -4.7913
1496520170.8568940163,1496520170.8592998981, -1.1382,  0.1069, -0.0867, -4.0131, -3.0060, -4.7913
1496520170.8593709469,1496520170.8617770672, -1.1382,  0.1069, -0.0867, -4.0131, -3.0060, -4.7913
1496520170.8618481159,1496520170.8642630577, -1.1382,  0.1069, -0.0867, -4.0131, -3.0060, -4.7913
1496520170.8643341064,1496520170.8667459488, -1.1382,  0.1069, -0.0867, -4.0131, -3.0060, -4.7913
1496520170.8668160439,1496520170.8692359924, -1.1382,  0.1069, -0.0867, -4.3030, -2.8534, -4.3945
1496520170.8693048954,1496520170.8717119694, -1.1382,  0.1069, -0.0867, -4.3030, -2.8534, -4.3945
1496520170.8717820644,1496520170.8741240501, -1.1570,  0.1096, -0.0996, -4.3030, -2.8534, -4.3945
1496520170.8741939068,1496520170.8764839172, -1.1570,  0.1096, -0.0996, -4.3030, -2.8534, -4.3945
1496520170.8765540123,1496520170.8788359165, -1.1570,  0.1096, -0.0996, -5.0354, -2.5024, -4.1504
1496520170.8789050579,1496520170.8811950684, -1.1570,  0.1096, -0.0996, -5.0354, -2.5024, -4.1504
1496520170.8812649250,1496520170.8836190701, -1.1570,  0.1096, -0.0996, -5.0354, -2.5024, -4.1504
1496520170.8836910725,1496520170.8860850334, -1.1570,  0.1096, -0.0996, -5.0354, -2.5024, -4.1504
1496520170.8861560822,1496520170.8885569572, -1.1570,  0.1096, -0.0996, -5.0354, -2.5024, -4.2267
1496520170.8886270523,1496520170.8910191059, -1.1570,  0.1096, -0.0996, -4.5776, -2.8381, -4.2267
1496520170.8910889626,1496520170.8935260773, -1.1411,  0.1025, -0.0996, -4.5776, -2.8381, -4.2267
1496520170.8935959339,14965201