timestamp_before,timestamp_after,accel_x,accel_y,accel_z,gyro_x,gyro_y,gryo_z
1495071537.0252180099,1495071537.0275070667, -0.5881,  0.3994, -0.7542,137.8937,-64.6362,-32.2418
1495071537.0276019573,1495071537.0300309658, -0.5881,  0.3994, -0.7542,142.9138,-76.4465,-42.8009
1495071537.0301098824,1495071537.0323970318, -0.5881,  0.3994, -0.7542,142.9138,-76.4465,-42.8009
1495071537.0324759483,1495071537.0347599983, -0.5881,  0.3994, -0.7542,142.9138,-76.4465,-42.8009
1495071537.0348379612,1495071537.0371179581, -0.5881,  0.3994, -0.7542,142.9138,-76.4465,-42.8009
1495071537.0371971130,1495071537.0395200253, -0.5881,  0.4338, -0.8037,142.9138,-87.2955,-50.9186
1495071537.0395989418,1495071537.0419349670, -0.5908,  0.4338, -0.8037,136.8256,-87.2955,-50.9186
1495071537.0420138836,1495071537.0442941189, -0.5908,  0.4338, -0.8037,136.8256,-87.2955,-50.9186
1495071537.0443730354,1495071537.0466599464, -0.5908,  0.4338, -0.8037,136.8256,-87.2955,-50.9186
1495071537.0467379093,1495071537.0490179062, -0.5908,  0.4338, -0.8037,136.8256,-87.2955,-50.9186
1495071537.0490961075,1495071537.0515370369, -0.5908,  0.4338, -0.8037,123.8403,-88.2416,-57.0221
1495071537.0516169071,1495071537.0539960861, -0.5908,  0.4338, -0.8037,123.8403,-88.2416,-57.0221
1495071537.0540759563,1495071537.0563600063, -0.5908,  0.4338, -0.8037,123.8403,-88.2416,-57.0221
1495071537.0564379692,1495071537.0587239265, -0.5908,  0.4338, -0.8662,123.8403,-88.2416,-57.0221
1495071537.0588018894,1495071537.0614900589, -0.6140,  0.4631, -0.8315,111.9843,-89.0045,-61.4319
1495071537.0615708828,1495071537.0639700890, -0.6140,  0.4631, -0.8315,111.9843,-89.0045,-61.4319
1495071537.0640509129,1495071537.0664501190, -0.6140,  0.4631, -0.8315,111.9843,-89.0045,-61.4319
1495071537.0665290356,1495071537.0689229965, -0.6140,  0.4631, -0.8315,111.9843,-89.0045,-61.4319
1495071537.0690019131,1495071537.0714690685, -0.6140,  0.4631, -0.8315, 92.4530,-87.9059,-63.5681
1495071537.0715479851,1495071537.0739610195, -0.6140,  0.4631, -0.8315, 92.8955,-87.9059,-63.5681
1495071537.0740408897,1495071537.0765519142, -0.6140,  0.4631, -0.8315, 92.8955,-87.9059,-63.5681
1495071537.0766320229,1495071537.0790290833, -0.6140,  0.4631, -0.8628, 92.8955,-87.9059,-63.5681
1495071537.0791079998,1495071537.0818440914, -0.7046,  0.4653, -0.8628, 81.1768,-85.7849,-65.0940
1495071537.0819249153,1495071537.0842099190, -0.7046,  0.4653, -0.8628, 78.1555,-85.7849,-65.0940
1495071537.0842890739,1495071537.0865800381, -0.7046,  0.4653, -0.8628, 78.1555,-85.7849,-65.0940
1495071537.0866589546,1495071537.0889449120, -0.7046,  0.4653, -0.8628, 78.1555,-85.7849,-65.0940
1495071537.0890240669,1495071537.0913751125, -0.7046,  0.4653, -0.8628, 78.1555,-85.7849,-65.0940
1495071537.0914530754,1495071537.0937418938, -0.7046,  0.4653, -0.8628, 69.8547,-86.2427,-66.2537
1495071537.0938210487,1495071537.0961010456, -0.7046,  0.4653, -0.8628, 69.8547,-86.2427,-66.2537
1495071537.0961799622,1495071537.0984721184, -0.7046,  0.4653, -0.8628, 69.8547,-86.2427,-66.2537
1495071537.0985500813,1495071537.1008369923, -0.8608,  0.4397, -0.9077, 69.8547,-86.2427,-66.2537
1495071537.1009159088,1495071537.1032009125, -0.8608,  0.4397, -0.9077, 65.8569,-88.7909,-67.8101
1495071537.1032810211,1495071537.1055660248, -0.8608,  0.4397, -0.9077, 65.8569,-88.7909,-67.8101
1495071537.1056449413,1495071537.1079270840, -0.8608,  0.4397, -0.9077, 65.8569,-88.7909,-67.8101
1495071537.1080069542,1495071537.1103060246, -0.8608,  0.4397, -0.9077, 65.8569,-88.7909,-67.8101
1495071537.1103858948,1495071537.1126720905, -0.8608,  0.4397, -0.9077, 65.8569,-88.7909,-67.8101
1495071537.1127519608,1495071537.1150350571, -0.8608,  0.4397, -0.9077, 69.0155,-94.5892,-69.9310
1495071537.1151139736,1495071537.1174070835, -0.8608,  0.4397, -0.9077, 69.0155,-94.5892,-69.9310
1495071537.1174869537,1495071537.1198260784, -0.9858,  0.4307, -0.9705, 69.0155,-94.5892,-69.9310
1495071537.1199049950,1495071537.1221919060, -0.9434,  0.4307, -0.9705, 69.0155,-94.5892,-69.9310
1495071537.1222720146,1495071537.1245648861, -0.9434,  0.4307, -0.9705, 86.9293,-98.7396,-69.9005
1495071537.1246430874,1495071537.1269280910, -0.9434,  0.4307, -0.9705, 86.9293,-98.7396,-69.9005
1495071537.1271460056,1495071537.1295878887, -0.9434,  0.4307, -0.9705, 86.9293,-98.7396,-69.9005
1495071537.1296660900,1495071537.1319539547, -0.9434,  0.4307, -0.9705, 86.9293,-98.7396,-69.9005
1495071537.1320340633,1495071537.1343200207, -0.9434,  0.4307, -0.9705, 86.9293,-40.1459,-47.1039
1495071537.1343989372,1495071537.1366920471, -0.9434,  0.4307, -0.9705,183.6548,-41.1072,-47.1039
1495071537.1367690563,1495071537.1390550137, -0.9434,  0.4307, -2.6040,183.6548,-41.1072,-47.1039
1495071537.1391329765,1495071537.1416211128, -0.7759,  0.7695, -2.6040,183.6548,-41.1072,-47.1039
1495071537.1417000294,1495071537.1441149712, -0.7759,  0.7695, -2.6040,183.6548,-41.1072,-47.1039
1495071537.1441938877,1495071537.1466040611, -0.7759,  0.7695, -2.6040,355.2856,108.7646,  8.6365
1495071537.1466820240,1495071537.1490941048, -0.7759,  0.7695, -2.6040,355.2856,108.7646,  8.6365
1495071537.1491720676,1495071537.1515109539, -0.7759,  0.7695, -2.6040,355.2856,108.7646,  8.6365
1495071537.1515879631,1495071537.1538739204, -0.7759,  0.7695, -2.6040,355.2856,108.7646,  8.6365
1495071537.1539499760,1495071537.1562418938, -0.7759,  0.7695, -2.6040,188.5529,128.7079, 34.9731
1495071537.1563200951,1495071537.1586101055, -0.7759,  0.7695, -2.6040,188.5529,128.7079, 34.9731
1495071537.1586890221,1495071537.1610798836, -0.7334,  0.4194, -0.8096,188.5529,128.7079, 34.9731
1495071537.1611599922,1495071537.1635739803, -0.7334,  0.4194, -0.8096,188.5529,128.7079, 34.9731
1495071537.1636540890,1495071537.1660609245, -0.7334,  0.4194, -0.8096,188.5529,124.8016, 58.5938
1495071537.1661410332,1495071537.1685500145, -0.7334,  0.4194, -0.8096, 98.4344,123.1995, 58.5938
1495071537.1686298847,1495071537.1710500717, -0.7334,  0.4194, -0.8096, 98.4344,123.1995, 58.5938
1495071537.1711289883,1495071537.1735379696, -0.7334,  0.4194, -0.8096, 98.4344,123.1995, 58.5938
1495071537.1736159325,1495071537.1760358810, -0.7334,  0.4194, -0.8096, 98.4344,123.1995, 58.5938
1495071537.1761150360,1495071537.1785259247, -0.7334,  0.4194, -0.8096,150.5280,106.1554, 68.8171
1495071537.1786060333,1495071537.1810278893, -0.6045,  0.1663, -0.9932,150.5280,106.1554, 68.8171
1495071537.1811079979,1495071537.1835188866, -0.6045,  0.1663, -0.9932,150.5280,106.1554, 68.8171
1495071537.1835989952,1495071537.1860089302, -0.6045,  0.1663, -0.9932,150.5280,106.1554, 68.8171
1495071537.1860890388,1495071537.1884989738, -0.6045,  0.1663, -0.9932,152.7405, 92.0410, 72.2656
1495071537.1885800362,1495071537.1910340786, -0.6045,  0.1663, -0.9932,152.7405, 92.0410, 72.2656
1495071537.1911129951,1495071537.1935219765, -0.6045,  0.1663, -0.9932,152.7405, 92.0410, 72.2656
1495071537.1936020851,1495071537.1961669922, -0.6045,  0.1663, -0.9932,152.7405, 92.0410, 72.2656
1495071537.1962480545,1495071537.1986470222, -0.6045,  0.1663, -0.9932,138.0310, 92.7429, 78.1555
1495071537.1987280846,1495071537.2014780045, -0.5959,  0.1790, -0.9829,138.0310, 92.7429, 78.1555
1495071537.2015600204,1495071537.2038450241, -0.5959,  0.1790, -0.9829,138.0310, 92.7429, 78.1555
1495071537.2039239407,1495071537.2062060833, -0.5959,  0.1790, -0.9829,138.0310, 92.7429, 78.1555
1495071537.2062859535,1495071537.2085781097, -0.5959,  0.1790, -0.9829,157.5623, 98.9532, 82.6416
1495071537.2086570263,1495071537.2110950947, -0.5959,  0.1790, -0.9829,158.8440, 98.9532, 82.6416
1495071537.2111759186,1495071537.2135870457, -0.5959,  0.1790, -0.9829,158.8440, 98.9532, 82.6416
1495071537.2136659622,1495071537.2160739899, -0.5959,  0.1790, -0.9829,158.8440, 98.9532, 82.6416
1495071537.2161529064,1495071537.2185609341, -0.5959,  0.1790, -0.9829,158.8440, 98.9532, 86.6852
1495071537.2186410427,1495071537.2210690975, -0.4993,  0.1646, -1.0591,176.0712,101.1658, 86.6852
1495071537.2211499214,1495071537.2235550880, -0.4993,  0.1646, -1.0591,176.0712,101.1658, 86.6852
1495071537.2236359119,1495071537.2260448933, -0.4993,  0.1646, -1.0591,176.0712,101.1658, 86.6852
1495071537.2261240482,1495071537.2285408974, -0.4993,  0.1646, -1.0591,176.0712,101.1658, 86.6852
1495071537.2287359238,1495071537.2310578823, -0.4993,  0.1646, -1.0591,159.3781,103.2257, 93.2159
1495071537.2311379910,1495071537.2334299088, -0.4993,  0.1646, -1.0591,159.3781,103.2257, 93.2159
1495071537.2335100174,1495071537.2357959747, -0.4993,  0.1646, -1.0591,159.3781,103.2257, 93.2159
1495071537.2358748913,1495071537.2381560802, -0.4993,  0.1646, -1.0591,159.3781,103.2257, 93.2159
1495071537.2382349968,1495071537.2405700684, -0.5139,  0.0732, -1.1108,111.1450,105.0262,107.1320
1495071537.2406489849,1495071537.2429349422, -0.5139,  0.0732, -1.1108,111.1450,105.0262,107.1320
1495071537.2430140972,1495071537.2452909946, -0.5139,  0.0732, -1.1108,111.1450,105.0262,107.1320
1495071537.2453689575,1495071537.2476649284, -0.5139,  0.0732, -1.1108,111.1450,105.0262,107.1320
1495071537.2477419376,1495071537.2501590252, -0.5139,  0.0732, -1.1108,111.1450,105.0262,114.9445
1495071537.2502379417,1495071537.2525260448, -0.5139,  0.0732, -1.1108, 72.6013,103.8666,115.5396
1495071537.2526049614,1495071537.2548921108, -0.5139,  0.0732, -1.1108, 72.6013,103.8666,115.5396
1495071537.2549710274,1495071537.2572550774, -0.5139,  0.0732, -1.1108, 72.6013,103.8666,115.5396
1495071537.2573339939,1495071537.2597780228, -0.5139,  0.1406, -1.1775, 72.6013,103.8666,115.5396
1495071537.2598578930,1495071537.2622659206, -0.4431,  0.1406, -1.1775, 42.8162,109.7565,125.2441
1495071537.2623450756,1495071537.2647531033, -0.4431,  0.1406, -1.1775, 42.8162,109.7565,125.2441
1495071537.2648320198,1495071537.2672441006, -0.4431,  0.1406, -1.1775, 42.8162,109.7565,125.2441
1495071537.2673230171,1495071537.2697439194, -0.4431,  0.1406, -1.1775, 42.8162,109.7565,125.2441
1495071537.2698230743,1495071537.2722311020, -0.4431,  0.1406, -1.1775, 17.7612,113.6475,131.8512
1495071537.2723100185,1495071537.2747180462, -0.4431,  0.1406, -1.1775, 17.7612,113.6475,131.8512
1495071537.2747979164,1495071537.2772059441, -0.4431,  0.1406, -1.1775, 17.7612,113.6475,131.8512
1495071537.2772850990,1495071537.2797069550, -0.4431,  0.1357, -1.0051, 17.7612,113.6475,131.8512
1495071537.2797870636,1495071537.2821900845, -0.3899,  0.1357, -1.0051, 17.7612,113.6475,138.7482
1495071537.2822690010,1495071537.2846748829, -0.3899,  0.1357, -1.0051,  6.6071,118.8049,138.7482
1495071537.2847509384,1495071537.2871580124, -0.3899,  0.1357, -1.0051,  6.6071,118.8049,138.7482
1495071537.2872350216,1495071537.2896559238, -0.3899,  0.1357, -1.0051,  6.6071,118.8049,138.7482
1495071537.2897329330,1495071537.2921450138, -0.3899,  0.1357, -1.0051,  6.6071,118.8049,138.7482
1495071537.2922210693,1495071537.2946310043, -0.3899,  0.1357, -1.0051,-13.7787,127.9602,137.7106
1495071537.2947089672,1495071537.2971150875, -0.3899,  0.1357, -1.0051,-13.7787,127.9602,137.7106
1495071537.2971940041,1495071537.2996320724, -0.3899,  0.3499, -1.3943,-13.7787,127.9602,137.7106
1495071537.2997119427,1495071537.3019969463, -0.3171,  0.3499, -1.3943,-13.7787,127.9602,137.7106
1495071537.3020749092,1495071537.3043589592, -0.3171,  0.3499, -1.3943,-19.0277,128.5706,128.3417
1495071537.3044369221,1495071537.3067240715, -0.3171,  0.3499, -1.3943,-19.0277,128.5706,128.3417
1495071537.3068020344,1495071537.3090898991, -0.3171,  0.3499, -1.3943,-19.0277,128.5706,128.3417
1495071537.3091681004,1495071537.3115749359, -0.3171,  0.3499, -1.3943,-19.0277,128.5706,128.3417
1495071537.3116528988,1495071537.3140630722, -0.3171,  0.3499, -1.3943,-19.0277, 89.5081, 98.7701
1495071537.3141429424,1495071537.3166489601, -0.3171,  0.3499, -1.3943,-33.8745, 88.5162, 98.7701
1495071537.3167300224,1495071537.3191280365, -0.3171,  0.3499, -1.1025,-33.8745, 88.5162, 98.7701
1495071537.3192069530,1495071537.3221509457, -0.1980,  0.4026, -1.1025,-33.8745, 88.5162, 98.7701
1495071537.3222329617,1495071537.3245160580, -0.1980,  0.4026, -1.1025,-33.8745, 76.7975, 80.6885
1495071537.3245959282,1495071537.3268721104, -0.1980,  0.4026, -1.1025,-58.8837, 78.0029, 80.6885
1495071537.3269519806,1495071537.3292329311, -0.1980,  0.4026, -1.1025,-58.8837, 78.0029, 80.6885
1495071537.3293130398,1495071537.3317019939, -0.1980,  0.4026, -1.1025,-58.8837, 78.0029, 80.6885
1495071537.3318989277,1495071537.3341848850, -0.1980,  0.4026, -1.1025,-58.8837, 78.0029, 80.6885
1495071537.3342640400,1495071537.3365380764, -0.1980,  0.4026, -1.1025,-57.6782, 39.8712, 57.9224
1495071537.3366169930,1495071537.3389039040, -0.1980,  0.4026, -1.1650,-57.6782, 39.8712, 57.9224
1495071537.3389830589,1495071537.3412649632, -0.3154,  0.2380, -1.1311,-57.6782, 39.8712, 57.9224
1495071537.3413441181,1495071537.3436279297, -0.3154,  0.2380, -1.1311,-57.6782, 39.8712, 57.9224
1495071537.3437049389,1495071537.3459858894, -0.3154,  0.2380, -1.1311,-49.8657,  5.3711, 40.9546
1495071537.3460619450,1495071537.3483378887, -0.3154,  0.2380, -1.1311,-50.7202,  5.3711, 40.9546
1495071537.3484139442,1495071537.3506999016, -0.3154,  0.2380, -1.1311,-50.7202,  5.3711, 40.9546
1495071537.3507769108,1495071537.3530540466, -0.3154,  0.2380, -1.1311,-50.7202,  5.3711, 40.9546
1495071537.3531310558,1495071537.3554089069, -0.3154,  0.2380, -1.1311,-50.7202,  5.3711, 40.9546
1495071537.3554849625,1495071537.3577690125, -0.3154,  0.2380, -1.1311,-33.6151,-19.1345, 26.6113
1495071537.3578479290,1495071537.3601388931, -0.2244,  0.2476, -1.0437,-33.6151,-19.1345, 26.6113
1495071537.3602190018,1495071537.3625040054, -0.2244,  0.2476, -1.0437,-33.6151,-19.1345, 26.6113
1495071537.3625819683,1495071537.3648600578, -0.2244,  0.2476, -1.0437,-33.6151,-19.1345, 26.6113
1495071537.3649380207,1495071537.3672180176, -0.2244,  0.2476, -1.0437,-10.1776,-24.4904, 17.6086
1495071537.3672969341,1495071537.3697519302, -0.2244,  0.2476, -1.0437, -7.9346,-24.4904, 17.6086
1495071537.3698279858,1495071537.3721060753, -0.2244,  0.2476, -1.0437, -7.9346,-24.4904, 17.6086
1495071537.3721818924,1495071537.3744640350, -0.2244,  0.2476, -1.0437, -7.9346,-24.4904, 17.6086
1495071537.3745388985,1495071537.3768219948, -0.2244,  0.2476, -1.0437, -7.9346,-24.4904, 13.7024
1495071537.3768980503,1495071537.3791759014, -0.2244,  0.2476, -1.0132,  3.5706,-17.4866, 12.3901
1495071537.3792510033,1495071537.3816659451, -0.1826,  0.2136, -1.0132,  3.5706,-17.4866, 12.3901
1495071537.3817420006,1495071537.3840229511, -0.1826,  0.2136, -1.0132,  3.5706,-17.4866, 12.3901
1495071537.3840990067,1495071537.3863759041, -0.1826,  0.2136, -1.0132,  3.5706,-17.4866, 12.3901
1495071537.3864519596,1495071537.3887300491, -0.1826,  0.2136, -1.0132,  6.0577, -7.5226,  3.7689
1495071537.3887989521,1495071537.3911449909, -0.1826,  0.2136, -1.0132,  6.0577, -7.5226,  3.7689
1495071537.3912138939,1495071537.3934888840, -0.1826,  0.2136, -1.0132,  6.0577, -7.5226,  3.7689
1495071537.3935580254,1495071537.3958330154, -0.1826,  0.2136, -1.0132,  6.0577, -7.5226,  3.7689
1495071537.3959019184,1495071537.3981800079, -0.1826,  0.2136, -1.0132,  6.0577, -7.5226, -0.7935
1495071537.3982501030,1495071537.4005889893, -0.1965,  0.1931, -1.0000,  6.0120,  4.8065, -0.7935
1495071537.4006609917,1495071537.4029390812, -0.1965,  0.1931, -1.0000,  6.0120,  4.8065, -0.7935
1495071537.4030089378,1495071537.4052889347, -0.1965,  0.1931, -1.0000,  6.0120,  4.8065, -0.7935
1495071537.4053590298,1495071537.4076509476, -0.1965,  0.1931, -1.0000,  6.0120,  4.8065, -0.7935
1495071537.4077210426,1495071537.4100990295, -0.1965,  0.1931, -1.0000,  2.4261, 14.2212, -5.5542
1495071537.4101719856,1495071537.4125831127, -0.1965,  0.1931, -1.0000,  2.4261, 14.2212, -5.5542
1495071537.4126560688,1495071537.4150669575, -0.1965,  0.1931, -1.0000,  2.4261, 14.2212, -5.5542
1495071537.4151411057,1495071537.4175469875, -0.1965,  0.1931, -1.0000,  2.4261, 14.2212, -5.5542
1495071537.4176208973,1495071537.4200429916, -0.1990,  0.1965, -1.0322, -1.4801, 19.2871,-15.1520
1495071537.4201200008,1495071537.4225280285, -0.1990,  0.1965, -1.0322, -2.5177, 19.2871,-15.1520
1495071537.4226050377,1495071537.4250149727, -0.1990,  0.1965, -1.0322, -2.5177, 19.2871,-15.1520
1495071537.4250910282,1495071537.4274981022, -0.1990,  0.1965, -1.0322, -2.5177, 19.2871,-15.1520
1495071537.4275739193,1495071537.4300389290, -0.1990,  0.1965, -1.0322, -2.5177, 19.2871,-24.4598
1495071537.4301159382,1495071537.4325211048, -0.1990,  0.1965, -1.0322,  0.1984, 19.9738,-24.4598
1495071537.4327299595,1495071537.4351439476, -0.1990,  0.1965, -1.0322,  0.1984, 19.9738,-24.4598
1495071537.4352219105,1495071537.4377648830, -0.1990,  0.1965, -1.0322,  0.1984, 19.9738,-24.4598
1495071537.4378430843,1495071537.4405539036, -0.2139,  0.1799, -1.0508,  0.1984, 19.9738,-24.4598
1495071537.4406321049,1495071537.4430389404, -0.2139,  0.1799, -1.0508, -2.9449, 17.4255,-25.8789
1495071537.4431149960,1495071537.4455220699, -0.2139,  0.1799, -1.0508, -2.9449, 17.4255,-25.8789
1495071537.4455978870,1495071537.4480140209, -0.2139,  0.1799, -1.0508, -2.9449, 17.4255,-25.8789
1495071537.4480900764,1495071537.4504590034, -0.2139,  0.1799, -1.0508, -2.9449, 17.4255,-25.8789
1495071537.4505350590,1495071537.4528219700, -0.2139,  0.1799, -1.0508, -6.6681, 14.0076,-25.2380
1495071537.4528989792,1495071537.4551839828, -0.2139,  0.1799, -1.0508, -6.6681, 14.0076,-25.2380
1495071537.4552609921,1495071537.4575400352, -0.2139,  0.1799, -1.0508, -6.6681, 14.0076,-25.2380
1495071537.4576170444,1495071537.4599380493, -0.1899,  0.1943, -1.0471, -6.6681, 14.0076,-25.2380
1495071537.4600141048,1495071537.4624049664, -0.1899,  0.1943, -1.0471, -2.9755,  8.7433,-24.1547
1495071537.4624791145,1495071537.4648699760, -0.1899,  0.1943, -1.0471, -2.9755,  8.7433,-24.1547
1495071537.4649429321,1495071537.4673309326, -0.1899,  0.1943, -1.0471, -2.9755,  8.7433,-24.1547
1495071537.4674050808,1495071537.4698169231, -0.1899,  0.1943, -1.0471, -2.9755,  8.7433,-24.1547
1495071537.4698901176,1495071537.4722220898, -0.1899,  0.1943, -1.0471, -2.9755,  8.7433,-17.8986
1495071537.4722959995,1495071537.4745910168, -0.1899,  0.1943, -1.0471, -2.0752,  6.2714,-17.8986
1495071537.4746649265,1495071537.4769821167, -0.1899,  0.1943, -1.0471, -2.0752,  6.2714,-17.8986
1495071537.4770560265,1495071537.4793379307, -0.1899,  0.1943, -1.0276, -2.0752,  6.2714,-17.8986
1495071537.4794778824,1495071537.4817619324, -0.1914,  0.2097, -1.0276, -2.0752,  6.2714,-17.8986
1495071537.4818348885,1495071537.4841809273, -0.1914,  0.2097, -1.0276,  3.9978,  1.3733, -4.9286
1495071537.4842519760,1495071537.4865400791, -0.1914,  0.2097, -1.0276,  3.9978,  1.3733, -4.9286
1495071537.4866089821,1495071537.4888920784, -0.1914,  0.2097, -1.0276,  3.9978,  1.3733, -4.9286
1495071537.4889609814,1495071537.4913311005, -0.1914,  0.2097, -1.0276,  3.9978,  1.3733, -4.9286
1495071537.4914009571,1495071537.4936869144, -0.1914,  0.2097, -1.0276,  3.9978, -2.5330, -2.8992
1495071537.4937570095,1495071537.4960329533, -0.1914,  0.2097, -1.0276,  7.0038, -0.4730, -2.8992
1495071537.4961040020,1495071537.4983859062, -0.1914,  0.2097, -1.0276,  7.0038, -0.4730, -2.8992
1495071537.4984569550,1495071537.5009300709, -0.1912,  0.1960, -1.0620,  7.0038, -0.4730, -2.8992
1495071537.5010008812,1495071537.5032849312, -0.1912,  0.1960, -1.0620,  7.0038, -0.4730, -2.8992
1495071537.5033550262,1495071537.5056319237, -0.1912,  0.1960, -1.0620,  5.7220,  2.0294, -6.3934
1495071537.5057010651,1495071537.5079801083, -0.1912,  0.1960, -1.0620,  5.7220,  2.0294, -6.3934
1495071537.5080490112,1495071537.5104880333, -0.1912,  0.1960, -1.0620,  5.7220,  2.0294, -6.3934
1495071537.5105569363,1495071537.5129640102, -0.1912,  0.1960, -1.0620,  5.7220,  2.0294, -6.3934
1495071537.5132160187,1495071537.5155069828, -0.1912,  0.1960, -1.0620,  3.1128,  2.6398, -5.7068
1495071537.5155770779,1495071537.5178599358, -0.1912,  0.1960, -1.0620,  3.1128,  2.6398, -5.7068
1495071537.5179290771,1495071537.5203690529, -0.1746,  0.1821, -1.0396,  3.1128,  2.6398, -5.7068
1495071537.5204401016,1495071537.5227310658, -0.1746,  0.1821, -1.0396,  3.1128,  2.6398, -5.7068
1495071537.5227999687,1495071537.5256900787, -0.1746,  0.1821, -1.0396,  3.1128,  2.6398, -5.6000
1495071537.5257620811,1495071537.5280520916, -0.1746,  0.1821, -1.0396, -1.6327,  2.6398, -5.6000
1495071537.5281209946,1495071537.5304529667, -0.1746,  0.1821, -1.0396, -1.6327,  2.6398, -5.6000
1495071537.5305221081,1495071537.5327980518, -0.1746,  0.1821, -1.0396, -1.6327,  2.6398, -5.6000
1495071537.5328669548,1495071537.5351500511, -0.1746,  0.1821, -1.0396, -1.6327,  2.6398, -5.6000
1495071537.5353510380,1495071537.5376338959, -0.1746,  0.1821, -1.0396, -3.2959,  1.8158, -5.8746
1495071537.5377030373,1495071537.5400300026, -0.1912,  0.1912, -1.0557, -3.2959,  1.8158, -5.8746
1495071537.5400989056,1495071537.5423779488, -0.1912,  0.1912, -1.0557, -3.2959,  1.8158, -5.8746
1495071537.5424470901,1495071537.5447280407, -0.1912,  0.1912, -1.0557, -3.2959,  1.8158, -5.8746
1495071537.5447969437,1495071537.5470759869, -0.1912,  0.1912, -1.0557, -4.0131,  0.8240, -4.5776
1495071537.5471470356,1495071537.5495669842, -0.1912,  0.1912, -1.0557, -4.0131,  0.8240, -4.5776
1495071537.5496358871,1495071537.5519120693, -0.1912,  0.1912, -1.0557, -4.0131,  0.8240, -4.5776
1495071537.5519809723,1495071537.5542709827, -0.1912,  0.1912, -1.0557, -4.0131,  0.8240, -4.5776
1495071537.5543420315,1495071537.5566151142, -0.1912,  0.1912, -1.0557, -4.0131,  0.8240, -5.3558
1495071537.5566849709,1495071537.5589580536, -0.1912,  0.1912, -1.0369, -2.8229,  2.0752, -5.3558
1495071537.5590260029,1495071537.5614500046, -0.1807,  0.1924, -1.0369, -2.8229,  2.0752, -5.3558
1495071537.5615200996,1495071537.5638000965, -0.1807,  0.1924, -1.0369, -2.8229,  2.0752, -5.3558
1495071537.5638699532,1495071537.5661559105, -0.1807,  0.1924, -1.0369, -2.8229,  2.0752, -5.3558
1495071537.5662260056,1495071537.5684969425, -0.1807,  0.1924, -1.0369, -1.2207,  1.7242, -5.1727
1495071537.5685670376,1495071537.5709290504, -0.1807,  0.1924, -1.0369, -1.2207,  1.7242, -5.1727
1495071537.5710000992,1495071537.5732889175, -0.1807,  0.1924, -1.0369, -1.2207,  1.7242, -5.1727
1495071537.5733580589,1495071537.5756399632, -0.1807,  0.1924, -1.0369, -1.2207,  1.7242, -5.1727
1495071537.5757100582,1495071537.5779919624, -0.1807,  0.1924, -1.0369, -1.2207,  1.7242, -5.3558
1495071537.5780599117,1495071537.5805521011, -0.1877,  0.1892, -1.0649, -0.8698,  1.2207, -5.3558
1495071537.5806241035,1495071537.5830359459, -0.1877,  0.1892, -1.0649, -0.8698,  1.2207, -5.3558
1495071537.5831069946,1495071537.5855190754, -0.1877,  0.1892, -1.0649, -0.8698,  1.2207, -5.3558
1495071537.5855898857,1495071537.5879869461, -0.1877,  0.1892, -1.0649, -0.8698,  1.2207, -5.3558
1495071537.5880570412,1495071537.5904209614, -0.1877,  0.1892, -1.0649, -0.9155,  0.7172, -4.5166
1495071537.5904920101,1495071537.5927779675, -0.1877,  0.1892, -1.0649, -0.9155,  0.7172, -4.5166
1495071537.5928490162,1495071537.5951309204, -0.1877,  0.1892, -1.0649, -0.9155,  0.7172, -4.5166
1495071537.5952010155,1495071537.5974869728, -0.1877,  0.1892, -1.0649, -0.9155,  0.7172, -4.5166
1495071537.5975580215,1495071537.5998780727, -0.1753,  0.1882, -1.0286, -0.4883,  1.0834, -4.5624
1495071537.5999479294,1495071537.6023559570, -0.1753,  0.1882, -1.0286, -0.4883,  1.0834, -4.5624
1495071537.6024270058,1495071537.6048369408, -0.1753,  0.1882, -1.0286, -0.4883,  1.0834, -4.5624
1495071537.6049070358,1495071537.6073091030, -0.1753,  0.1882, -1.0286, -0.4883,  1.0834, -4.5624
1495071537.6073799133,1495071537.6098508835, -0.1753,  0.1882, -1.0286, -0.4883,  1.0834, -4.6539
1495071537.6099209785,1495071537.6123330593, -0.1753,  0.1882, -1.0286, -0.8087,  1.3123, -4.6539
1495071537.6124029160,1495071537.6148149967, -0.1753,  0.1882, -1.0286, -0.8087,  1.3123, -4.6539
1495071537.6148860455,1495071537.6173799038, -0.1753,  0.1882, -1.0286, -0.8087,  1.3123, -4.6539
1495071537.6174509525,1495071537.6198101044, -0.1753,  0.1892, -1.0442, -0.8087,  1.3123, -4.6539
1495071537.6198830605,1495071537.6222529411, -0.1838,  0.1892, -1.0442, -1.6937,  0.7935, -5.0049
1495071537.6223239899,1495071537.6246919632, -0.1838,  0.1892, -1.0442, -1.6937,  0.7935, -5.0049
1495071537.6247620583,1495071537.6275479794, -0.1838,  0.1892, -1.0442, -1.6937,  0.7935, -5.0049
1495071537.6276218891,1495071537.6299951077, -0.1838,  0.1892, -1.0442, -1.6937,  0.7935, -5.0049
1495071537.6300659180,1495071537.6323459148, -0.1838,  0.1892, -1.0442, -1.9073,  1.1139, -5.3711
1495071537.6324160099,1495071537.6346960068, -0.1838,  0.1892, -1.0442, -1.9073,  1.1139, -5.3711
1495071537.6348729134,1495071537.6371550560, -0.1838,  0.1892, -1.0442, -1.9073,  1.1139, -5.3711
1495071537.6372239590,1495071537.6395010948, -0.1838,  0.1899, -1.0330, -1.9073,  1.1139, -5.3711
1495071537.6395699978,1495071537.6418468952, -0.1860,  0.1899, -1.0330, -1.9073,  1.6785, -5.0201
1495071537.6419169903,1495071537.6441979408, -0.1860,  0.1899, -1.0330, -2.2125,  1.6785, -5.0201
1495071537.6442670822,1495071537.6465361118, -0.1860,  0.1899, -1.0330, -2.2125,  1.6785, -5.0201
1495071537.6466059685,1495071537.6488859653, -0.1860,  0.1899, -1.0330, -2.2125,  1.6785, -5.0201
1495071537.6489560604,1495071537.6512429714, -0.1860,  0.1899, -1.0330, -2.2125,  1.6785, -5.0201
1495071537.6513121128,1495071537.6535899639, -0.1860,  0.1899, -1.0330, -1.8768,  1.6479, -5.0507
1495071537.6536591053,1495071537.6559400558, -0.1860,  0.1899, -1.0330, -1.8768,  1.6479, -5.0507
1495071537.6560099125,1495071537.6582880020, -0.1860,  0.1899, -1.0330, -1.8768,  1.6479, -5.0507
1495071537.6583580971,1495071537.6607260704, -0.1875,  0.1943, -1.0283, -1.8768,  1.6479, -5.0507
1495071537.6607959270,1495071537.6630721092, -0.1875,  0.1943, -1.0283, -1.8768,  1.7548, -5.2032
1495071537.6631410122,1495071537.6654210091, -0.1875,  0.1943, -1.0283, -1.0834,  1.7548, -5.2032
1495071537.6654911041,1495071537.6677649021, -0.1875,  0.1943, -1.0283, -1.0834,  1.7548, -5.2032
1495071537.6678340435,1495071537.6702120304, -0.1875,  0.1943, -1.0283, -1.0834,  1.7548, -5.2032
1495071537.6702818871,1495071537.6725640297, -0.1875,  0.1943, -1.0283, -1.0834,  1.7548, -5.2032
1495071537.6726338863,1495071537.6749129295, -0.1875,  0.1943, -1.0283, -0.6256,  1.7395, -5.9357
1495071537.6749830246,1495071537.6772599220, -0.1875,  0.1943, -1.0283, -0.6256,  1.7395, -5.9357
1495071537.6773300171,1495071537.6797571182, -0.1875,  0.1892, -1.0291, -0.6256,  1.7395, -5.9357
1495071537.6798279285,1495071537.6821050644, -0.1909,  0.1892, -1.0291, -0.6256,  1.7395, -5.9357
1495071537.6821761131,1495071537.6844499111, -0.1909,  0.1892, -1.0291, -1.2207,  1.7395, -5.3711
1495071537.6845190525,1495071537.6867969036, -0.1909,  0.1892, -1.0291, -1.2207,  1.7395, -5.3711
1495071537.6868660450,1495071537.6891479492, -0.1909,  0.1892, -1.0291, -1.2207,  1.7395, -5.3711
1495071537.6892180443,1495071537.6915409565, -0.1909,  0.1892, -1.0291, -1.2207,  1.7395, -5.3711
1495071537.6916100979,1495071537.6938939095, -0.1909,  0.1892, -1.0291, -1.2207,  1.7395, -5.3711
1495071537.6939630508,1495071537.6962409019, -0.1909,  0.1892, -1.0291, -1.0986,  1.5106, -5.2338
1495071537.6963100433,1495071537.6985909939, -0.1909,  0.1892, -1.0291, -1.0986,  1.5106, -5.2338
1495071537.6986610889,1495071537.7009849548, -0.1921,  0.1880, -1.0532, -1.0986,  1.5106, -5.2338
1495071537.7010540962,1495071537.7033319473, -0.1921,  0.1880, -1.0532, -1.0986,  1.5106, -5.2338
1495071537.7034010887,1495071537.7056789398, -0.1921,  0.1880, -1.0532, -1.6327,  1.9073, -5.0812
1495071537.7057480812,1495071537.7080268860, -0.1921,  0.1880, -1.0532, -1.6327,  1.9073, -5.0812
1495071537.7080960274,1495071537.7104799747, -0.1921,  0.1880, -1.0532, -1.6327,  1.9073, -5.0812
1495071537.7105500698,1495071537.7129518986, -0.1921,  0.1880, -1.0532, -1.6327,  1.9073, -5.0812
1495071537.7130219936,1495071537.7154190540, -0.1921,  0.1880, -1.0532, -1.6327,  1.9073, -5.4016
1495071537.7154889107,1495071537.7178928852, -0.1921,  0.1880, -1.0532, -1.9684,  1.7548, -5.4016
1495071537.7179629803,1495071537.7203719616, -0.1807,  0.1887, -1.0415, -1.9684,  1.7548, -5.4016
1495071537.7204420567,1495071537.7228469849, -0.1807,  0.1887, -1.0415, -1.9684,  1.7548, -5.4016
1495071537.7229170799,1495071537.7253189087, -0.1807,  0.1887, -1.0415, -1.9684,  1.7548, -5.4016
1495071537.7253890038,1495071537.7277979851, -0.1807,  0.1887, -1.0415, -1.4954,  1.5411, -5.5542
1495071537.7278680801,1495071537.7302880287, -0.1807,  0.1887, -1.0415, -1.4954,  1.5411, -5.5542
1495071537.7303569317,1495071537.7327680588, -0.1807,  0.1887, -1.0415, -1.4954,  1.5411, -5.5542
1495071537.7328379154,1495071537.7352480888, -0.1807,  0.1887, -1.0415, -1.4954,  1.5411, -5.5542
1495071537.7355589867,1495071537.7380449772, -0.1807,  0.1887, -1.0415, -1.6327,  1.0376, -4.8218
1495071537.7381160259,1495071537.7408280373, -0.1826,  0.1904, -1.0449, -1.6327,  1.0376, -4.8218
1495071537.7408990860,1495071537.7431809902, -0.1826,  0.1904, -1.0449, -1.6327,  1.0376, -4.8218
1495071537.7432498932,1495071537.7455279827, -0.1826,  0.1904, -1.0449, -1.6327,  1.0376, -4.8218
1495071537.7455968857,1495071537.7478780746, -0.1826,  0.1904, -1.0449, -1.9989,  1.9073, -5.0659
1495071537.7479460239,1495071537.7502810955, -0.1826,  0.1904, -1.0449, -1.9989,  1.9073, -5.0659
1495071537.7503499985,1495071537.7527620792, -0.1826,  0.1904, -1.0449, -1.9989,  1.9073, -5.0659
1495071537.7528319359,1495071537.7552330494, -0.1826,  0.1904, -1.0449, -1.9989,  1.9073, -5.0659
1495071537.7553019524,1495071537.7577080727, -0.1826,  0.1904, -1.0449, -1.9989,  1.9073, -5.2948
1495071537.7577769756,1495071537.7602310181, -0.1746,  0.1848, -1.0374, -1.6632,  1.6327, -5.2948
1495071537.7603011131,1495071537.7627129555, -0.1746,  0.1848, -1.0374, -1.6632,  1.6327, -5.2948
1495071537.7627820969,1495071537.7651910782, -0.1746,  0.1848, -1.0374, -1.6632,  1.6327, -5.2948
1495071537.7652609348,1495071537.7676639557, -0.1746,  0.1848, -1.0374, -1.6632,  1.6327, -5.2948
1495071537.7677330971,1495071537.7701230049, -0.1746,  0.1848, -1.0374, -1.0681,  1.7700, -5.4626
1495071537.7701931000,1495071537.7724759579, -0.1746,  0.1848, -1.0374, -1.0681,  1.7700, -5.4626
1495071537.7725460529,1495071537.7748250961, -0.1746,  0.1848, -1.0374, -1.0681,  1.7700, -5.4626
1495071537.7748939991,1495071537.7771720886, -0.1746,  0.1848, -1.0374, -1.0681,  1.7700, -5.4626
1495071537.7772419453,1495071537.7795240879, -0.1746,  0.1868, -1.0342, -1.4801,  1.3885, -5.5542
1495071537.7795929909,1495071537.7818760872, -0.1758,  0.1868, -1.0342, -1.4801,  1.3885, -5.5542
1495071537.7819449902,1495071537.7842259407, -0.1758,  0.1868, -1.0342, -1.4801,  1.3885, -5.5542
1495071537.7842960358,1495071537.7865800858, -0.1758,  0.1868, -1.0342, -1.4801,  1.3885, -5.5542
1495071537.7866489887,1495071537.7889320850, -0.1758,  0.1868, -1.0342, -1.4801,  1.3885, -5.5542
1495071537.7890009880,1495071537.7914509773, -0.1758,  0.1868, -1.0342, -1.2665,  1.0986, -5.1575
1495071537.7915201187,1495071537.7938079834, -0.1758,  0.1868, -1.0342, -1.2665,  1.0986, -5.1575
1495071537.7938768864,1495071537.7961599827, -0.1758,  0.1868, -1.0342, -1.2665,  1.0986, -5.1575
1495071537.7962288857,1495071537.7985100746, -0.1758,  0.1868, -1.0342, -1.2665,  1.0986, -5.1575
1495071537.7985789776,1495071537.8010311127, -0.1855,  0.1897, -1.0471, -1.6174,  1.5259, -5.3711
1495071537.8011009693,1495071537.8035058975, -0.1855,  0.1897, -1.0471, -1.6174,  1.5259, -5.3711
1495071537.8035750389,1495071537.8059790134, -0.1855,  0.1897, -1.0471, -1.6174,  1.5259, -5.3711
1495071537.8060479164,1495071537.8084540367, -0.1855,  0.1897, -1.0471, -1.6174,  1.5259, -5.3711
1495071537.8085229397,1495071537.8109369278, -0.1855,  0.1897, -1.0471, -1.6174,  1.6022, -5.6152
1495071537.8110060692,1495071537.8134109974, -0.1855,  0.1897, -1.0471, -1.0223,  1.6022, -5.6152
1495071537.8134810925,1495071537.8158779144, -0.1855,  0.1897, -1.0471, -1.0223,  1.6022, -5.6152
1495071537.8159470558,1495071537.8183429241, -0.1855,  0.1897, -1.0471, -1.0223,  1.6022, -5.6152
1495071537.8184120655,1495071537.8207550049, -0.1929,  0.1917, -1.0415, -1.0223,  1.6022, -5.6152
1495071537.8208260536,1495071537.8231070042, -0.1929,  0.1917, -1.0415, -1.1139,  1.7090, -5.3711
1495071537.8231770992,1495071537.8254520893, -0.1929,  0.1917, -1.0415, -1.1139,  1.7090, -5.3711
1495071537.8255209923,1495071537.8278050423, -0.1929,  0.1917, -1.0415, -1.1139,  1.7090, -5.3711
1495071537.8278748989,1495071537.8302550316, -0.1929,  0.1917, -1.0415, -1.1139,  1.7090, -5.3711
1495071537.8303260803,1495071537.8326039314, -0.1929,  0.1917, -1.0415, -1.2665,  1.6937, -5.0354
1495071537.8326740265,1495071537.8349499702, -0.1929,  0.1917, -1.0415, -1.2665,  1.6937, -5.0354
1495071537.8350191116,1495071537.8372991085, -0.1929,  0.1917, -1.0415, -1.2665,  1.6937, -5.0354
1495071537.8374769688,1495071537.8397550583, -0.1304,  0.1829, -1.0354, -1.2665,  1.6937, -5.0354
1495071537.8398239613,1495071537.8421039581, -0.1709,  0.1829, -1.0354, -1.2665,  1.6937, -5.3101
1495071537.8421750069,1495071537.8444530964, -0.1709,  0.1829, -1.0354, -1.4496,  1.4496, -5.3101
1495071537.8445229530,1495071537.8468019962, -0.1709,  0.1829, -1.0354, -1.4496,  1.4496, -5.3101
1495071537.8468720913,1495071537.8491520882, -0.1709,  0.1829, -1.0354, -1.4496,  1.4496, -5.3101
1495071537.8492209911,1495071537.8515460491, -0.1709,  0.1829, -1.0354, -1.4496,  1.4496, -5.3101
1495071537.8516149521,1495071537.8538899422, -0.1709,  0.1829, -1.0354, -1.9379,  1.7395, -5.0507
1495071537.8539600372,1495071537.8563590050, -0.1709,  0.1829, -1.0354, -1.9379,  1.7395, -5.0507
1495071537.8564300537,1495071537.8587090969, -0.1709,  0.1829, -1.0354, -1.9379,  1.7395, -5.0507
1495071537.8587799072,1495071537.8614039421, -0.1897,  0.1851, -1.0608, -1.9379,  1.7395, -5.0507
1495071537.8614749908,1495071537.8637490273, -0.1897,  0.1851, -1.0608, -1.9379,  1.6479, -5.0507
1495071537.8638188839,1495071537.8660891056, -0.1897,  0.1851, -1.0608, -1.5717,  1.6479, -5.0507
1495071537.8661599159,1495071537.8684370518, -0.1897,  0.1851, -1.0608, -1.5717,  1.6479, -5.0507
1495071537.8685069084,1495071537.8708910942, -0.1897,  0.1851, -1.0608, -1.5717,  1.6479, -5.0507
1495071537.8709609509,1495071537.8733680248, -0.1897,  0.1851, -1.0608, -1.5717,  1.6479, -5.0507
1495071537.8734378815,1495071537.8758459091, -0.1897,  0.1851, -1.0608, -1.1597,  1.0681, -5.2490
1495071537.8759160042,1495071537.8783290386, -0.1897,  0.1851, -1.0608, -1.1597,  1.0681, -5.2490
1495071537.8783988953,1495071537.8808488846, -0.1770,  0.1897, -1.0278, -1.1597,  1.0681, -5.2490
1495071537.8809189796,1495071537.8833210468, -0.1770,  0.1897, -1.0278, -1.1597,  1.0681, -5.2490
1495071537.8833909035,1495071537.8857998848, -0.1770,  0.1897, -1.0278, -1.6785,  1.5869, -5.3558
1495071537.8858699799,1495071537.8882780075, -0.1770,  0.1897, -1.0278, -1.6785,  1.5869, -5.3558
1495071537.8883469105,1495071537.8906838894, -0.1770,  0.1897, -1.0278, -1.6785,  1.5869, -5.3558
1495071537.8907539845,1495071537.8930330276, -0.1770,  0.1897, -1.0278, -1.6785,  1.5869, -5.3558
1495071537.8931019306,1495071537.8953809738, -0.1770,  0.1897, -1.0278, -1.6785,  1.3123, -5.1880
1495071537.8954501152,1495071537.8977310658, -0.1770,  0.1897, -1.0278, -1.2512,  1.3123, -5.1880
1495071537.8978009224,1495071537.9000918865, -0.1829,  0.1841, -1.0674, -1.2512,  1.3123, -5.1880
1495071537.9001619816,1495071537.9024469852, -0.1829,  0.1841, -1.0674, -1.2512,  1.3123, -5.1880
1495071537.9025158882,1495071537.9047970772, -0.1829,  0.1841, -1.0674, -1.2512,  1.3123, -5.1880
1495071537.9048669338,1495071537.9071550369, -0.1829,  0.1841, -1.0674, -1.6632,  1.0529, -5.0812
1495071537.9072248936,1495071537.9096510410, -0.1829,  0.1841, -1.0674, -1.6632,  1.0529, -5.0812
1495071537.9097299576,1495071537.9120240211, -0.1829,  0.1841, -1.0674, -1.6632,  1.0529, -5.0812
1495071537.9120950699,1495071537.9143710136, -0.1829,  0.1841, -1.0674, -1.6632,  1.0529, -5.0812
1495071537.9144411087,1495071537.9167211056, -0.1829,  0.1841, -1.0674, -1.5869,  1.6174, -5.5389
1495071537.9167909622,1495071537.9190709591, -0.1829,  0.1841, -1.0417, -1.5869,  1.6174, -5.5389
1495071537.9191410542,1495071537.9215080738, -0.1902,  0.1895, -1.0417, -1.5869,  1.6174, -5.5389
1495071537.9215779305,1495071537.9238491058, -0.1902,  0.1895, -1.0417, -1.5869,  1.6174, -5.5389
1495071537.9239180088,1495071537.9262011051, -0.1902,  0.1895, -1.0417, -1.5869,  1.6174, -5.5389
1495071537.9262700081,1495071537.9285480976, -0.1902,  0.1895, -1.0417, -1.3733,  1.6174, -5.2185
1495071537.9286179543,1495071537.9309489727, -0.1902,  0.1895, -1.0417, -1.3733,  1.6174, -5.2185
1495071537.9310181141,1495071537.9332959652, -0.1902,  0.1895, -1.0417, -1.3733,  1.6174, -5.2185
1495071537.9333651066,1495071537.9356451035, -0.1902,  0.1895, -1.0417, -1.3733,  1.6174, -5.2185
1495071537.9357140064,1495071537.9379920959, -0.1902,  0.1895, -1.0417, -1.2817,  1.3275, -5.1270
1495071537.9381680489,1495071537.9404489994, -0.1777,  0.1851, -1.0449, -1.2817,  1.3275, -5.1270
1495071537.9405190945,1495071537.9427919388, -0.1777,  0.1851, -1.0449, -1.2817,  1.3275, -5.1270
1495071537.9428620338,1495071537.9451398849, -0.1777,  0.1851, -1.0449, -1.2817,  1.3275, -5.1270
1495071537.9452099800,1495071537.9474849701, -0.1777,  0.1851, -1.0449, -1.2817,  1.3275, -5.1270
1495071537.9475541115,1495071537.9498589039, -0.1777,  0.1851, -1.0449, -1.7242,  1.5106, -5.3711
1495071537.9499280453,1495071537.9522070885, -0.1777,  0.1851, -1.0449, -1.7242,  1.5106, -5.3711
1495071537.9522759914,1495071537.9545469284, -0.1777,  0.1851, -1.0449, -1.7242,  1.5106, -5.3711
1495071537.9546160698,1495071537.9568970203, -0.1777,  0.1851, -1.0449, -1.7242,  1.5106, -5.3711
1495071537.9569671154,1495071537.9592490196, -0.1777,  0.2476, -1.0466, -1.1749,  1.6632, -5.5237
1495071537.9593169689,1495071537.9617199898, -0.1831,  0.1899, -1.0466, -1.1749,  1.6632, -5.5237
1495071537.9617888927,1495071537.9640760422, -0.1831,  0.1899, -1.0466, -1.1749,  1.6632, -5.5237
1495071537.9641449451,1495071537.9664249420, -0.1831,  0.1899, -1.0466, -1.1749,  1.6632, -5.5237
1495071537.9664940834,1495071537.9687750340, -0.1831,  0.1899, -1.0466, -1.1749,  1.6632, -5.4016
1495071537.9688439369,1495071537.9712769985, -0.1831,  0.1899, -1.0466, -1.2817,  1.2817, -5.4016
1495071537.9713459015,1495071537.9737501144, -0.1831,  0.1899, -1.0466, -1.2817,  1.2817, -5.4016
1495071537.9738190174,1495071537.9762809277, -0.1831,  0.1899, -1.0466, -1.2817,  1.2817, -5.4016
1495071537.9763510227,1495071537.9787480831, -0.1831,  0.1899, -1.0466, -1.2817,  1.2817, -5.4016
1495071537.9788179398,1495071537.9813780785, -0.1816,  0.1885, -1.0435, -1.9379,  1.5564, -5.4474
1495071537.9814500809,1495071537.9837350845, -0.1816,  0.1885, -1.0435, -1.9379,  1.5564, -5.4474
1495071537.9838039875,1495071537.9860870838, -0.1816,  0.1885, -1.0435, -1.9379,  1.5564, -5.4474
1495071537.9861569405,1495071537.9884409904, -0.1816,  0.1885, -1.0435, -1.9379,  1.5564, -5.4474
1495071537.9885098934,1495071537.9908149242, -0.1816,  0.1885, -1.0435, -2.1057,  1.7700, -5.0049
1495071537.9908850193,1495071537.9931631088, -0.1816,  0.1885, -1.0435, -2.1057,  1.7700, -5.0049
1495071537.9932320118,1495071537.9955120087, -0.1816,  0.1885, -1.0435, -2.1057,  1.7700, -5.0049
1495071537.9955821037,1495071537.9978599548, -0.1816,  0.1885, -1.0435, -2.1057,  1.7700, -5.0049
1495071537.9979290962,1495071538.0002620220, -0.1819,  0.1902, -1.0322, -2.1057,  1.7700, -5.0049
1495071538.0003321171,1495071538.0026080608, -0.1819,  0.1902, -1.0322, -1.3275,  1.6174, -5.5847
1495071538.0026769638,1495071538.0049529076, -0.1819,  0.1902, -1.0322, -1.3275,  1.6174, -5.5847
1495071538.0050220490,1495071538.0073070526, -0.1819,  0.1902, -1.0322, -1.3275,  1.6174, -5.5847
1495071538.0073759556,1495071538.0096740723, -0.1819,  0.1902, -1.0322, -1.3275,  1.6174, -5.5847
1495071538.0097429752,1495071538.0120220184, -0.1819,  0.1902, -1.0322, -1.3885,  1.4038, -5.6152
1495071538.0120921135,1495071538.0143721104, -0.1819,  0.1902, -1.0322, -1.3885,  1.4038, -5.6152
1495071538.0144410133,1495071538.0167160034, -0.1819,  0.1902, -1.0322, -1.3885,  1.4038, -5.6152
1495071538.0167849064,1495071538.0190649033, -0.1819,  0.1902, -1.0608, -1.3885,  1.4038, -5.6152
1495071538.0191349983,1495071538.0214219093, -0.1836,  0.1880, -1.0608, -1.3885,  1.4038, -5.6152
1495071538.0214920044,1495071538.0237650871, -0.1836,  0.1880, -1.0608, -1.3580,  1.8616, -5.5084
1495071538.0238349438,1495071538.0261130333, -0.1836,  0.1880, -1.0608, -1.3580,  1.8616, -5.5084
1495071538.0261828899,1495071538.0284619331, -0.1836,  0.1880, -1.0608, -1.3580,  1.8616, -5.5084
1495071538.0285310745,1495071538.0309429169, -0.1836,  0.1880, -1.0608, -1.3580,  1.8616, -5.5084
1495071538.0310120583,1495071538.0332880020, -0.1836,  0.1880, -1.0608, -0.7019,  1.7700, -5.3406
1495071538.0333590508,1495071538.0356359482, -0.1836,  0.1880, -1.0608, -0.7019,  1.7700, -5.3406
1495071538.0357060432,1495071538.0379850864, -0.1836,  0.1880, -1.0608, -0.7019,  1.7700, -5.3406
1495071538.0381629467,1495071538.0405690670, -0.1807,  0.1897, -1.0361, -0.7019,  1.7700, -5.3406
1495071538.0406410694,1495071538.0429170132, -0.1807,  0.1897, -1.0361, -0.7019,  1.7700, -4.9438
1495071538.0429880619,1495071538.0452659130, -0.1807,  0.1897, -1.0361, -1.6174,  1.8921, -4.9438
1495071538.0453350544,1495071538.0476140976, -0.1807,  0.1897, -1.0361, -1.6174,  1.8921, -4.9438
1495071538.0476830006,1495071538.0500240326, -0.1807,  0.1897, -1.0361, -1.6174,  1.8921, -4.9438
1495071538.0500929356,1495071538.0523700714, -0.1807,  0.1897, -1.0361, -1.6174,  1.8921, -4.9438
1495071538.0524389744,1495071538.0547120571, -0.1807,  0.1897, -1.0361,  0.6866,  1.4343, -5.2795
1495071538.0547819138,1495071538.0570669174, -0.1807,  0.1897, -1.0361,  0.6866,  1.4343, -5.2795
1495071538.0571370125,1495071538.0594599247, -0.1807,  0.1882, -1.0476,  0.6866,  1.4343, -5.2795
1495071538.0595300198,1495071538.0618081093, -0.1895,  0.1882, -1.0476,  0.6866,  1.4343, -5.2795
1495071538.0618779659,1495071538.0641570091, -0.1895,  0.1882, -1.0476,  0.6866,  1.4343, -5.1727
1495071538.0642259121,1495071538.0665059090, -0.1895,  0.1882, -1.0476,  2.3041,  1.9073, -5.1727
1495071538.0665750504,1495071538.0688509941, -0.1895,  0.1882, -1.0476,  2.3041,  1.9073, -5.1727
1495071538.0689198971,1495071538.0714149475, -0.1895,  0.1882, -1.0476,  2.3041,  1.9073, -5.1727
1495071538.0714869499,1495071538.0737679005, -0.1895,  0.1882, -1.0476,  2.3041,  1.9073, -5.1727
1495071538.0738379955,1495071538.0761139393, -0.1895,  0.1882, -1.0476,  1.5411,  1.5259, -5.6915
1495071538.0761830807,1495071538.0784571171, -0.1895,  0.1882, -1.0476,  1.5411,  1.5259, -5.6915
1495071538.0785260201,1495071538.0811159611, -0.1836,  0.1899, -1.0332,  1.5411,  1.5259, -5.6915
1495071538.0811870098,1495071538.0834739208, -0.1836,  0.1899, -1.0332,  1.5411,  1.5259, -5.6915
1495071538.0835430622,1495071538.0858240128, -0.1836,  0.1899, -1.0332,  3.2196,  1.6327, -5.9662
1495071538.0858941078,1495071538.0881829262, -0.1836,  0.1899, -1.0332,  3.2196,  1.6327, -5.9662
1495071538.0882520676,1495071538.0905940533, -0.1836,  0.1899, -1.0332,  3.2196,  1.6327, -5.9662
1495071538.0906629562,1495071538.0929460526, -0.1836,  0.1899, -1.0332,  3.2196,  1.6327, -5.9662
1495071538.0930140018,1495071538.0953969955, -0.1836,  0.1899, -1.0332,  3.2196,  1.6327, -5.9662
1495071538.0955090523,1495071538.0979249477, -0.1836,  0.1899, -1.0332,  2.5482,  1.4496, -5.5389
1495071538.0979959965,1495071538.1006278992, -0.1812,  0.1802, -1.0366,  2.5482,  1.4496, -5.5389
1495071538.1006989479,1495071538.1029760838, -0.1812,  0.1802, -1.0366,  2.5482,  1.4496, -5.5389
1495071538.1030449867,1495071538.1053249836, -0.1812,  0.1802, -1.0366,  2.5482,  1.4496, -5.5389
1495071538.1053938866,1495071538.1076738834, -0.1812,  0.1802, -1.0366,  1.0071,  1.6479, -5.5847
1495071538.1077439785,1495071538.1100549698, -0.1812,  0.1802, -1.0366,  1.0071,  1.6479, -5.5847
1495071538.1101250648,1495071538.1124029160, -0.1812,  0.1802, -1.0366,  1.0071,  1.6479, -5.5847
1495071538.1124730110,1495071538.1147511005, -0.1812,  0.1802, -1.0366,  1.0071,  1.6479, -5.5847
1495071538.1148200035,1495071538.1170980930, -0.1812,  0.1802, -1.0366,  1.0071,  1.6479, -5.6000
1495071538.1171679497,1495071538.1194748878, -0.1812,  0.1807, -1.0447, -0.2136,  1.9989, -5.6000
1495071538.1195449829,1495071538.1218180656, -0.1870,  0.1807, -1.0447, -0.2136,  1.9989, -5.6000
1495071538.1218879223,1495071538.1241641045, -0.1870,  0.1807, -1.0447, -0.2136,  1.9989, -5.6000
1495071538.1242339611,1495071538.1273219585, -0.1870,  0.1807, -1.0447, -0.2136,  1.9989, -5.6000
1495071538.1273961067,1495071538.1297729015, -0.1870,  0.1807, -1.0447, -1.1139,  1.1444, -5.2643
1495071538.1298429966,1495071538.1323769093, -0.1870,  0.1807, -1.0447, -1.1139,  1.1444, -5.2643
1495071538.1324489117,1495071538.1349499226, -0.1870,  0.1807, -1.0447, -1.1139,  1.1444, -5.2643
1495071538.1350231171,1495071538.1373569965, -0.1870,  0.1807, -1.0447, -1.1139,  1.1444, -5.2643
1495071538.1375460625,1495071538.1398649216, -0.1870,  0.1812, -1.0659, -2.3956,  1.4038, -5.2948
1495071538.1399350166,1495071538.1422080994, -0.1865,  0.1812, -1.0659, -2.3956,  1.4038, -5.2948
1495071538.1422779560,1495071538.1445569992, -0.1865,  0.1812, -1.0659, -2.3956,  1.4038, -5.2948
1495071538.1446259022,1495071538.1469058990, -0.1865,  0.1812, -1.0659, -2.3956,  1.4038, -5.2948
1495071538.1469750404,1495071538.1492550373, -0.1865,  0.1812, -1.0659, -2.0752,  2.0294, -5.4779
1495071538.1493239403,1495071538.1516940594, -0.1865,  0.1812, -1.0659, -2.0752,  2.0294, -5.4779
1495071538.1517629623,1495071538.1540451050, -0.1865,  0.1812, -1.0659, -2.0752,  2.0294, -5.4779
1495071538.1541149616,1495071538.1564021111, -0.1865,  0.1812, -1.0659, -2.0752,  2.0294, -5.4779
1495071538.1564710140,1495071538.1587469578, -0.1865,  0.1812, -1.0659, -2.0752,  2.0294, -5.4779
1495071538.1588160992,1495071538.1611459255, -0.1858,  0.1809, -1.0625, -1.3885,  1.6479, -5.3253
1495071538.1612150669,1495071538.1635000706, -0.1858,  0.1809, -1.0625, -1.3885,  1.6479, -5.3253
1495071538.1635689735,1495071538.1658439636, -0.1858,  0.1809, -1.0625, -1.3885,  1.6479, -5.3253
1495071538.1659131050,1495071538.1681981087, -0.1858,  0.1809, -1.0625, -1.3885,  1.6479, -5.3253
1495071538.1682670116,1495071538.1707100868, -0.1858,  0.1809, -1.0625, -1.2665,  1.6785, -5.2948
1495071538.1707799435,1495071538.1730599403, -0.1858,  0.1809, -1.0625, -1.2665,  1.6785, -5.2948
1495071538.1731300354,1495071538.1754150391, -0.1858,  0.1809, -1.0625, -1.2665,  1.6785, -5.2948
1495071538.1754839420,1495071538.1777579784, -0.1858,  0.1809, -1.0625, -1.2665,  1.6785, -5.2948
1495071538.1778268814,1495071538.1801970005, -0.1887,  0.1833, -1.0566, -1.2665,  1.6785, -5.3253
1495071538.1802680492,1495071538.1825571060, -0.1887,  0.1833, -1.0566, -0.9613,  1.7548, -5.3253
1495071538.1826279163,1495071538.1849050522, -0.1887,  0.1833, -1.0566, -0.9613,  1.7548, -5.3253
1495071538.1849739552,1495071538.1872580051, -0.1887,  0.1833, -1.0566, -0.9613,  1.7548, -5.3253
1495071538.1873281002,1495071538.1897659302, -0.1887,  0.1833, -1.0566, -0.9613,  1.7548, -5.3253
1495071538.1898360252,1495071538.1922440529, -0.1887,  0.1833, -1.0566, -1.4038,  1.1749, -5.6152
1495071538.1923129559,1495071538.1947250366, -0.1887,  0.1833, -1.0566, -1.4038,  1.1749, -5.6152
1495071538.1947939396,1495071538.1972010136, -0.1887,  0.1833, -1.0566, -1.4038,  1.1749, -5.6152
1495071538.1972711086,1495071538.1996870041, -0.1887,  0.1833, -1.0330, -1.4038,  1.1749, -5.6152
1495071538.1997570992,1495071538.2021648884, -0.1807,  0.1833, -1.0330, -1.9989,  1.3885, -5.1270
1495071538.2022349834,1495071538.2046411037, -0.1807,  0.1833, -1.0330, -1.9989,  1.3885, -5.1270
1495071538.2047109604,1495071538.2071220875, -0.1807,  0.1833, -1.0330, -1.9989,  1.3885, -5.1270
1495071538.2071919441,1495071538.2096419334, -0.1807,  0.1833, -1.0330, -1.9989,  1.3885, -5.1270
1495071538.2097110748,1495071538.2121169567, -0.1807,  0.1833, -1.0330, -1.9989,  1.3885, -5.4321
1495071538.2121870518,1495071538.2145988941, -0.1807,  0.1833, -1.0330, -1.8463,  1.4038, -5.4321
1495071538.2146689892,1495071538.2170729637, -0.1807,  0.1833, -1.0330, -1.8463,  1.4038, -5.4321
1495071538.2171421051,1495071538.2195498943, -0.1807,  0.1824, -1.0349, -1.8463,  1.4038, -5.4321
1495071538.2196199894,1495071538.2220320702, -0.1763,  0.1824, -1.0349, -1.8463,  1.4038, -5.4321
1495071538.2221019268,1495071538.2245099545, -0.1763,  0.1824, -1.0349, -1.8158,  1.7395, -5.1575
1495071538.2245800495,1495071538.2269859314, -0.1763,  0.1824, -1.0349, -1.8158,  1.7395, -5.1575
1495071538.2270560265,1495071538.2294731140, -0.1763,  0.1824, -1.0349, -1.8158,  1.7395, -5.1575
1495071538.2295429707,1495071538.2319500446, -0.1763,  0.1824, -1.0349, -1.8158,  1.7395, -5.1575
1495071538.2320199013,1495071538.2344288826, -0.1763,  0.1824, -1.0349, -1.6479,  1.8463, -5.2795
1495071538.2344989777,1495071538.2371389866, -0.1763,  0.1824, -1.0349, -1.6479,  1.8463, -5.2795
1495071538.2372090816,1495071538.2400529385, -0.1763,  0.1853, -1.0198, -1.6479,  1.8463, -5.2795
1495071538.2402389050,1495071538.2425279617, -0.1843,  0.1853, -1.0198, -1.6479,  1.8463, -5.2795
1495071538.2425980568,1495071538.2448821068, -0.1843,  0.1853, -1.0198, -1.5259,  1.5564, -5.4321
1495071538.2449510098,1495071538.2472369671, -0.1843,  0.1853, -1.0198, -1.5259,  1.5564, -5.4321
1495071538.2473070621,1495071538.2496500015, -0.1843,  0.1853, -1.0198, -1.5259,  1.5564, -5.4321
1495071538.2497189045,1495071538.2521209717, -0.1843,  0.1853, -1.0198, -1.5259,  1.5564, -5.4321
1495071538.2521901131,1495071538.2545979023, -0.1843,  0.1853, -1.0198, -1.5259,  1.6327, -4.9896
1495071538.2546670437,1495071538.2570710182, -0.1843,  0.1853, -1.0198, -1.4954,  1.6327, -4.9896
1495071538.2571399212,1495071538.2595579624, -0.1843,  0.1833, -1.0540, -1.4954,  1.6327, -4.9896
1495071538.2596271038,1495071538.2620379925, -0.1824,  0.1833, -1.0540, -1.4954,  1.6327, -4.9896
1495071538.2621080875,1495071538.2645089626, -0.1824,  0.1833, -1.0540, -1.4954,  1.6327, -4.9896
1495071538.2645781040,1495071538.2669920921, -0.1824,  0.1833, -1.0540, -1.0071,  1.6174, -5.0964
1495071538.2670619488,1495071538.2694859505, -0.1824,  0.1833, -1.0540, -1.0071,  1.6174, -5.0964
1495071538.2695550919,1495071538.2718350887, -0.1824,  0.1833, -1.0540, -1.0071,  1.6174, -5.0964
1495071538.2719049454,1495071538.2741930485, -0.1824,  0.1833, -1.0540, -1.0071,  1.6174, -5.0964
1495071538.2742629051,1495071538.2765429020, -0.1824,  0.1833, -1.0540, -1.0986,  1.6479, -5.2643
1495071538.2766129971,1495071538.2788960934, -0.1824,  0.1833, -1.1165, -1.0986,  1.6479, -5.2643
1495071538.2789659500,1495071538.2812559605, -0.1821,  0.1760, -1.0640, -1.0986,  1.6479, -5.2643
1495071538.2813260555,1495071538.2836089134, -0.1821,  0.1760, -1.0640, -1.0986,  1.6479, -5.2643
1495071538.2836780548,1495071538.2859699726, -0.1821,  0.1760, -1.0640, -1.0986,  1.6479, -5.5542
1495071538.2860391140,1495071538.2883210182, -0.1821,  0.1760, -1.0640, -1.5411,  1.3580, -5.5542
1495071538.2883899212,1495071538.2907629013, -0.1821,  0.1760, -1.0640, -1.5411,  1.3580, -5.5542
1495071538.2908329964,1495071538.2931199074, -0.1821,  0.1760, -1.0640, -1.5411,  1.3580, -5.5542
1495071538.2931890488,1495071538.2954690456, -0.1821,  0.1760, -1.0640, -1.5411,  1.3580, -5.5542
1495071538.2955389023,1495071538.2978239059, -0.1821,  0.1760, -1.0640, -1.1292,  1.2360, -5.4779
1495071538.2978940010,1495071538.3003211021, -0.1853,  0.1790, -1.0437, -1.1292,  1.2360, -5.4779
1495071538.3003909588,1495071538.3026700020, -0.1853,  0.1790, -1.0437, -1.1292,  1.2360, -5.4779
1495071538.3027400970,1495071538.3050210476, -0.1853,  0.1790, -1.0437, -1.1292,  1.2360, -5.4779
1495071538.3050909042,1495071538.3073720932, -0.1853,  0.1790, -1.0437, -1.1292,  0.9613, -5.2643
1495071538.3074419498,1495071538.3097269535, -0.1853,  0.1790, -1.0437, -2.1057,  0.9613, -5.2643
1495071538.3097960949,1495071538.3120799065, -0.1853,  0.1790, -1.0437, -2.1057,  0.9613, -5.2643
1495071538.3121509552,1495071538.3144259453, -0.1853,  0.1790, -1.0437, -2.1057,  0.9613, -5.2643
1495071538.3144969940,1495071538.3167800903, -0.1853,  0.1790, -1.0437, -2.1057,  0.9613, -5.2643
1495071538.3168499470,1495071538.3191239834, -0.1853,  0.1790, -1.0435, -1.7853,  1.6937, -5.3711
1495071538.3191928864,1495071538.3215439320, -0.1868,  0.1848, -1.0435, -1.7853,  1.6937, -5.3711
1495071538.3216140270,1495071538.3238940239, -0.1868,  0.1848, -1.0435, -1.7853,  1.6937, -5.3711
1495071538.3239641190,1495071538.3262379169, -0.1868,  0.1848, -1.0435, -1.7853,  1.6937, -5.3711
1495071538.3263070583,1495071538.3285880089, -0.1868,  0.1848, -1.0435, -1.7853,  2.1210, -5.1880
1495071538.3286569118,1495071538.3309860229, -0.1868,  0.1848, -1.0435, -1.8158,  2.1210, -5.1880
1495071538.3310570717,1495071538.3333299160, -0.1868,  0.1848, -1.0435, -1.8158,  2.1210, -5.1880
1495071538.3334009647,1495071538.3356831074, -0.1868,  0.1848, -1.0435, -1.8158,  2.1210, -5.1880
1495071538.3357520103,1495071538.3380260468, -0.1868,  0.1848, -1.0435, -1.8158,  2.1210, -5.1880
1495071538.3380949497,1495071538.3404390812, -0.1858,  0.1829, -1.0474, -1.8616,  2.0752, -5.2338
1495071538.3406150341,1495071538.3429009914, -0.1858,  0.1829, -1.0474, -1.8616,  2.0752, -5.2338
1495071538.3429710865,1495071538.3452498913, -0.1858,  0.1829, -1.0474, -1.8616,  2.0752, -5.2338
1495071538.3453199863,1495071538.3475980759, -0.1858,  0.1829, -1.0474, -1.8616,  2.0752, -5.2338
1495071538.3476669788,1495071538.3500039577, -0.1858,  0.1829, -1.0474, -1.5259,  2.3041, -5.6152
1495071538.3500730991,1495071538.3523490429, -0.1858,  0.1829, -1.0474, -1.5259,  2.3041, -5.6152
1495071538.3524179459,1495071538.3547019958, -0.1858,  0.1829, -1.0474, -1.5259,  2.3041, -5.6152
1495071538.3547708988,1495071538.3571319580, -0.1858,  0.1829, -1.0474, -1.5259,  2.3041, -5.6152
1495071538.3572030067,1495071538.3595890999, -0.1858,  0.1838, -1.0476, -1.5259,  2.3041, -5.6152
1495071538.3596680164,1495071538.3621480465, -0.1816,  0.1838, -1.0476, -1.3123,  1.8158, -5.4474
1495071538.3622190952,1495071538.3646280766, -0.1816,  0.1838, -1.0476, -1.3123,  1.8158, -5.4474
1495071538.3646979332,1495071538.3671069145, -0.1816,  0.1838, -1.0476, -1.3123,  1.8158, -5.4474
1495071538.3671770096,1495071538.3696279526, -0.1816,  0.1838, -1.0476, -1.3123,  1.8158, -5.4474
1495071538.3696970940,1495071538.3721020222, -0.1816,  0.1838, -1.0476, -1.2817,  1.8158, -5.3864
1495071538.3721721172,1495071538.3745799065, -0.1816,  0.1838, -1.0476, -1.2817,  1.8158, -5.3864
1495071538.3746500015,1495071538.3770489693, -0.1816,  0.1838, -1.0476, -1.2817,  1.8158, -5.3864
1495071538.3771190643,1495071538.3795390129, -0.1816,  0.1829, -1.0588, -1.2817,  1.8158, -5.3864
1495071538.3796079159,1495071538.3818929195, -0.1846,  0.1829, -1.0588, -1.1139,  1.8768, -5.1727
1495071538.3819620609,1495071538.3842461109, -0.1846,  0.1829, -1.0588, -1.1139,  1.8768, -5.1727
1495071538.3843150139,1495071538.3865990639, -0.1846,  0.1829, -1.0588, -1.1139,  1.8768, -5.1727
1495071538.3866679668,1495071538.3889439106, -0.1846,  0.1829, -1.0588, -1.1139,  1.8768, -5.1727
1495071538.3890140057,1495071538.3913400173, -0.1846,  0.1829, -1.0588, -1.1139,  1.8768, -5.7526
1495071538.3914089203,1495071538.3936951160, -0.1846,  0.1829, -1.0588, -0.6409,  1.6785, -5.7526
1495071538.3937649727,1495071538.3960471153, -0.1846,  0.1829, -1.0588, -0.6409,  1.6785, -5.7526
1495071538.3961169720,1495071538.3984010220, -0.1846,  0.1829, -1.0588, -0.6409,  1.6785, -5.7526
1495071538.3984711170,1495071538.4007990360, -0.1829,  0.1829, -1.0476, -0.6409,  1.6785, -5.7526
1495071538.4008700848,1495071538.4031550884, -0.1829,  0.1829, -1.0476, -1.3885,  1.7090, -5.1880
1495071538.4032249451,1495071538.4055080414, -0.1829,  0.1829, -1.0476, -1.3885,  1.7090, -5.1880
1495071538.4055778980,1495071538.4078578949, -0.1829,  0.1829, -1.0476, -1.3885,  1.7090, -5.1880
1495071538.4079270363,1495071538.4103560448, -0.1829,  0.1829, -1.0476, -1.3885,  1.7090, -5.1880
1495071538.4104270935,1495071538.4127120972, -0.1829,  0.1829, -1.0476, -1.3885,  1.7090, -5.4779
1495071538.4127819538,1495071538.4150640965, -0.1829,  0.1829, -1.0476, -1.8005,  1.4801, -5.4779
1495071538.4151339531,1495071538.4174249172, -0.1829,  0.1829, -1.0476, -1.8005,  1.4801, -5.4779
1495071538.4174931049,1495071538.4199490547, -0.1829,  0.1836, -1.0430, -1.8005,  1.4801, -5.4779
1495071538.4200179577,1495071538.4224240780, -0.1772,  0.1836, -1.0430, -1.8005,  1.4801, -5.4779
1495071538.4224948883,1495071538.4249069691, -0.1772,  0.1836, -1.0430, -0.9460,  1.6937, -5.6610
1495071538.4249780178,1495071538.4273819923, -0.1772,  0.1836, -1.0430, -0.9460,  1.6937, -5.6610
1495071538.4274520874,1495071538.4298529625, -0.1772,  0.1836, -1.0430, -0.9460,  1.6937, -5.6610
1495071538.4299240112,1495071538.4322109222, -0.1772,  0.1836, -1.0430, -0.9460,  1.6937, -5.6610
1495071538.4322810173,1495071538.4345591068, -0.1772,  0.1836, -1.0430, -1.3123,  1.6937, -5.1575
1495071538.4346289635,1495071538.4369180202, -0.1772,  0.1836, -1.0430, -1.3123,  1.6937, -5.1575
1495071538.4369869232,1495071538.4392669201, -0.1772,  0.1836, -1.0596, -1.3123,  1.6937, -5.1575
1495071538.4393360615,1495071538.4417479038, -0.1863,  0.1816, -1.0596, -1.3123,  1.6937, -5.1575
1495071538.4419240952,1495071538.4443380833, -0.1863,  0.1816, -1.0596, -1.3123,  1.6937, -5.3406
1495071538.4444079399,1495071538.4468150139, -0.1863,  0.1816, -1.0596, -1.5106,  1.4801, -5.3406
1495071538.4468839169,1495071538.4492878914, -0.1863,  0.1816, -1.0596, -1.5106,  1.4801, -5.3406
1495071538.4493579865,1495071538.4516499043, -0.1863,  0.1816, -1.0596, -1.5106,  1.4801, -5.3406
1495071538.4517199993,1495071538.4540009499, -0.1863,  0.1816, -1.0596, -1.5106,  1.4801, -5.3406
1495071538.4540700912,1495071538.4563529491, -0.1863,  0.1816, -1.0596, -1.6479,  1.2512, -5.3558
1495071538.4564220905,1495071538.4587039948, -0.1863,  0.1816, -1.0596, -1.6479,  1.2512, -5.3558
1495071538.4587728977,1495071538.4611699581, -0.1694,  0.1797, -1.0325, -1.6479,  1.2512, -5.3558
1495071538.4612400532,1495071538.4635250568, -0.1694,  0.1797, -1.0325, -1.6479,  1.2512, -5.3558
1495071538.4635939598,1495071538.4658679962, -0.1694,  0.1797, -1.0325, -1.6479,  1.5564, -5.5389
1495071538.4659368992,1495071538.4682230949, -0.1694,  0.1797, -1.0325, -1.2665,  1.5564, -5.5389
1495071538.4682919979,1495071538.4706699848, -0.1694,  0.1797, -1.0325, -1.2665,  1.5564, -5.5389
1495071538.4707388878,1495071538.4731080532, -0.1694,  0.1797, -1.0325, -1.2665,  1.5564, -5.5389
1495071538.4731779099,1495071538.4756829739, -0.1694,  0.1797, -1.0325, -1.2665,  1.5564, -5.5389
1495071538.4757609367,1495071538.4781448841, -0.1694,  0.1797, -1.0325, -1.3885,  1.5564, -5.6915
1495071538.4782159328,1495071538.4809799194, -0.1885,  0.1846, -1.0449, -1.3885,  1.5564, -5.6915
1495071538.4810509682,1495071538.4833419323, -0.1885,  0.1846, -1.0449, -1.3885,  1.5564, -5.6915
1495071538.4834110737,1495071538.4856970310, -0.1885,  0.1846, -1.0449, -1.3885,  1.5564, -5.6915
1495071538.4857659340,1495071538.4880509377, -0.1885,  0.1846, -1.0449, -1.7242,  1.3123, -5.1880
1495071538.4881210327,1495071538.4904739857, -0.1885,  0.1846, -1.0449, -1.7242,  1.3123, -5.1880
1495071538.4905440807,1495071538.4929521084, -0.1885,  0.1846, -1.0449, -1.7242,  1.3123, -5.1880
1495071538.4930219650,1495071538.4954280853, -0.1885,  0.1846, -1.0449, -1.7242,  1.3123, -5.1880
1495071538.4954979420,1495071538.4979019165, -0.1885,  0.1846, -1.0449, -1.7548,  1.3123, -5.2948
1495071538.4979710579,1495071538.5004220009, -0.1804,  0.1821, -1.0537, -1.7548,  1.3123, -5.2948
1495071538.5004930496,1495071538.5028979778, -0.1804,  0.1821, -1.0537, -1.7548,  1.3123, -5.2948
1495071538.5029668808,1495071538.5053689480, -0.1804,  0.1821, -1.0537, -1.7548,  1.3123, -5.2948
1495071538.5054390430,1495071538.5078461170, -0.1804,  0.1821, -1.0537, -1.7548,  1.3123, -5.4016
1495071538.5079159737,1495071538.5102939606, -0.1804,  0.1821, -1.0537, -1.5869,  1.6022, -5.4016
1495071538.5103640556,1495071538.5126409531, -0.1804,  0.1821, -1.0537, -1.5869,  1.6022, -5.4016
1495071538.5127110481,1495071538.5149970055, -0.1804,  0.1821, -1.0537, -1.5869,  1.6022, -5.4016
1495071538.5150659084,1495071538.5173490047, -0.1804,  0.1821, -1.0537, -1.5869,  1.6022, -5.4016
1495071538.5174179077,1495071538.5197920799, -0.1804,  0.1782, -1.0454, -0.4425,  1.4343, -5.5695
1495071538.5198628902,1495071538.5221529007, -0.1812,  0.1782, -1.0454, -0.4425,  1.4343, -5.5695
1495071538.5222229958,1495071538.5245020390, -0.1812,  0.1782, -1.0454, -0.4425,  1.4343, -5.5695
1495071538.5245730877,1495071538.5268509388, -0.1812,  0.1782, -1.0454, -0.4425,  1.4343, -5.5695
1495071538.5269219875,1495071538.5292029381, -0.1812,  0.1782, -1.0454, -0.4425,  1.6937, -5.5389
1495071538.5292730331,1495071538.5316751003, -0.1812,  0.1782, -1.0454, -0.9613,  1.6937, -5.5389
1495071538.5317459106,1495071538.5340359211, -0.1812,  0.1782, -1.0454, -0.9613,  1.6937, -5.5389
1495071538.5341050625,1495071538.5364599228, -0.1812,  0.1782, -1.0454, -0.9613,  1.6937, -5.5389
1495071538.5365300179,1495071538.5388100147, -0.1812,  0.1782, -1.0454, -0.9613,  1.6937, -5.5389
1495071538.5388801098,1495071538.5413830280, -0.1865,  0.1797, -1.0469, -1.2207,  1.5106, -5.4474
1495071538.541