timestamp_before,timestamp_after,accel_x,accel_y,accel_z,gyro_x,gyro_y,gryo_z
1495411169.0223269463,1495411169.0246090889, -1.1199, -0.1541,  0.1138, -7.9803, -5.6000, -8.9874
1495411169.0246949196,1495411169.0269770622, -1.1145, -0.1606,  0.1138, -7.9803, -5.6000, -8.9874
1495411169.0270490646,1495411169.0294890404, -1.1145, -0.1606,  0.1138, -7.9803, -5.6000, -8.9874
1495411169.0295600891,1495411169.0320010185, -1.1145, -0.1606,  0.1138, -6.6986, -6.5613, -9.6741
1495411169.0320730209,1495411169.0343520641, -1.1145, -0.1606,  0.1138, -6.6986, -6.5613, -9.6741
1495411169.0344231129,1495411169.0367019176, -1.1145, -0.1606,  0.1138, -6.6986, -6.5613, -9.6741
1495411169.0367720127,1495411169.0390489101, -1.1145, -0.1606,  0.1138, -6.6986, -6.5613, -9.6741
1495411169.0391199589,1495411169.0415740013, -1.1145, -0.1606,  0.1138, -4.7913, -6.6681,-10.0403
1495411169.0416491032,1495411169.0440440178, -1.1145, -0.1606,  0.1138, -4.7913, -6.6681,-10.0403
1495411169.0441188812,1495411169.0466840267, -1.1145, -0.1575,  0.1016, -4.7913, -6.6681,-10.0403
1495411169.0467579365,1495411169.0490419865, -1.1145, -0.1575,  0.1016, -4.7913, -6.6681,-10.0403
1495411169.0491149426,1495411169.0532870293, -1.1145, -0.1575,  0.1016, -3.2349, -6.3019,-10.7727
1495411169.0533649921,1495411169.0557270050, -1.1145, -0.1575,  0.1016, -3.2349, -6.3019,-10.7727
1495411169.0558021069,1495411169.0580780506, -1.1145, -0.1575,  0.1016, -3.2349, -6.3019,-10.7727
1495411169.0581510067,1495411169.0604979992, -1.1145, -0.1575,  0.1016, -3.2349, -6.3019,-10.7727
1495411169.0605719090,1495411169.0629310608, -1.1145, -0.1575,  0.1016, -2.0752, -6.5155,-11.4136
1495411169.0630059242,1495411169.0652909279, -1.1145, -0.1570,  0.1143, -2.0752, -6.5155,-11.4136
1495411169.0653650761,1495411169.0676450729, -1.1130, -0.1570,  0.1143, -2.0752, -6.5155,-11.4136
1495411169.0677189827,1495411169.0700440407, -1.1130, -0.1570,  0.1143, -2.0752, -6.5155,-11.4136
1495411169.0701169968,1495411169.0724260807, -1.1130, -0.1570,  0.1143, -2.0752, -6.5155,-11.4136
1495411169.0724999905,1495411169.0747840405, -1.1130, -0.1570,  0.1143, -1.0834, -6.4087,-11.6882
1495411169.0748579502,1495411169.0771400928, -1.1130, -0.1570,  0.1143, -1.0834, -6.4087,-11.6882
1495411169.0772140026,1495411169.0795140266, -1.1130, -0.1570,  0.1143, -1.0834, -6.4087,-11.6882
1495411169.0795879364,1495411169.0818700790, -1.1130, -0.1570,  0.1143, -1.0834, -6.4087,-11.6882
1495411169.0819430351,1495411169.0842249393, -1.1130, -0.1570,  0.1143, -1.3123, -6.4087,-11.4899
1495411169.0842978954,1495411169.0865809917, -1.1118, -0.1504,  0.1011, -1.3123, -6.4087,-11.4899
1495411169.0866539478,1495411169.0889389515, -1.1118, -0.1504,  0.1011, -1.3123, -6.4087,-11.4899
1495411169.0890119076,1495411169.0913679600, -1.1118, -0.1504,  0.1011, -1.3123, -6.4087,-11.4899
1495411169.0914430618,1495411169.0937309265, -1.1118, -0.1504,  0.1011, -1.3123, -6.4087,-10.5896
1495411169.0938038826,1495411169.0960888863, -1.1118, -0.1504,  0.1011, -1.7242, -6.1951,-10.5896
1495411169.0961630344,1495411169.0984430313, -1.1118, -0.1504,  0.1011, -1.7242, -6.1951,-10.5896
1495411169.0985169411,1495411169.1009409428, -1.1118, -0.1504,  0.1011, -1.7242, -6.1951,-10.5896
1495411169.1010150909,1495411169.1032979488, -1.1118, -0.1504,  0.1011, -1.7242, -6.1951,-10.5896
1495411169.1033720970,1495411169.1056559086, -1.1067, -0.1516,  0.1116, -2.0599, -5.3253, -9.4757
1495411169.1057269573,1495411169.1080060005, -1.1067, -0.1516,  0.1116, -2.0599, -5.3253, -9.4757
1495411169.1080760956,1495411169.1105771065, -1.1067, -0.1516,  0.1116, -2.0599, -5.3253, -9.4757
1495411169.1106479168,1495411169.1130549908, -1.1067, -0.1516,  0.1116, -2.0599, -5.3253, -9.4757
1495411169.1131260395,1495411169.1155300140, -1.1067, -0.1516,  0.1116, -2.0599, -4.1809, -7.7362
1495411169.1156001091,1495411169.1180078983, -1.1067, -0.1516,  0.1116, -3.1128, -4.1809, -7.7362
1495411169.1180789471,1495411169.1204359531, -1.1067, -0.1516,  0.1116, -3.1128, -4.1809, -7.7362
1495411169.1205060482,1495411169.1227889061, -1.1067, -0.1516,  0.1116, -3.1128, -4.1809, -7.7362
1495411169.1228590012,1495411169.1251349449, -1.1067, -0.1514,  0.0967, -3.1128, -4.1809, -7.7362
1495411169.1253440380,1495411169.1276268959, -1.1128, -0.1514,  0.0967, -4.6997, -3.3875, -5.7983
1495411169.1276960373,1495411169.1300709248, -1.1128, -0.1514,  0.0967, -4.6997, -3.3875, -5.7983
1495411169.1301410198,1495411169.1325340271, -1.1128, -0.1514,  0.0967, -4.6997, -3.3875, -5.7983
1495411169.1326038837,1495411169.1350209713, -1.1128, -0.1514,  0.0967, -4.6997, -3.3875, -5.7983
1495411169.1350920200,1495411169.1373798847, -1.1128, -0.1514,  0.0967, -7.1106, -1.9989, -3.0212
1495411169.1374499798,1495411169.1398479939, -1.1128, -0.1514,  0.0967, -7.1106, -1.9989, -3.0212
1495411169.1399190426,1495411169.1422920227, -1.1128, -0.1514,  0.0967, -7.1106, -1.9989, -3.0212
1495411169.1423621178,1495411169.1447370052, -1.1128, -0.1514,  0.0967, -7.1106, -1.9989, -3.0212
1495411169.1448059082,1495411169.1482799053, -1.1174, -0.1497,  0.0984, -8.6365, -0.6104, -1.4038
1495411169.1483550072,1495411169.1507370472, -1.1174, -0.1497,  0.0984, -8.6365, -0.6104, -1.4038
1495411169.1508090496,1495411169.1530849934, -1.1174, -0.1497,  0.0984, -8.6365, -0.6104, -1.4038
1495411169.1531569958,1495411169.1554319859, -1.1174, -0.1497,  0.0984, -8.6365, -0.6104, -1.4038
1495411169.1555030346,1495411169.1577880383, -1.1174, -0.1497,  0.0984, -8.6365,  0.8545, -0.8240
1495411169.1578609943,1495411169.1601579189, -1.1174, -0.1497,  0.0984,-10.1013,  0.8545, -0.8240
1495411169.1602339745,1495411169.1625208855, -1.1174, -0.1497,  0.0984,-10.1013,  0.8545, -0.8240
1495411169.1625959873,1495411169.1648750305, -1.1174, -0.1497,  0.0896,-10.1013,  0.8545, -0.8240
1495411169.1649498940,1495411169.1672310829, -1.1138, -0.1577,  0.0896,-10.1013,  0.8545, -0.8240
1495411169.1673059464,1495411169.1696450710, -1.1138, -0.1577,  0.0896,-11.2305,  2.7161,  0.1373
1495411169.1697199345,1495411169.1720008850, -1.1138, -0.1577,  0.0896,-11.2305,  2.7161,  0.1373
1495411169.1720769405,1495411169.1743550301, -1.1138, -0.1577,  0.0896,-11.2305,  2.7161,  0.1373
1495411169.1744289398,1495411169.1767139435, -1.1138, -0.1577,  0.0896,-11.2305,  2.7161,  0.1373
1495411169.1767880917,1495411169.1790640354, -1.1138, -0.1577,  0.0896,-11.5662,  4.4708,  1.0071
1495411169.1791369915,1495411169.1815040112, -1.1138, -0.1577,  0.0896,-11.5662,  4.4708,  1.0071
1495411169.1815779209,1495411169.1838591099, -1.1138, -0.1577,  0.0896,-11.5662,  4.4708,  1.0071
1495411169.1839320660,1495411169.1862111092, -1.1118, -0.1619,  0.0994,-11.5662,  4.4708,  1.0071
1495411169.1862850189,1495411169.1885690689, -1.1118, -0.1619,  0.0994,-11.5662,  4.4708,  1.0071
1495411169.1886420250,1495411169.1910929680, -1.1118, -0.1619,  0.0994,-11.7188,  6.1798,  1.2512
1495411169.1911680698,1495411169.1934459209, -1.1118, -0.1619,  0.0994,-11.7188,  6.1798,  1.2512
1495411169.1935191154,1495411169.1958088875, -1.1118, -0.1619,  0.0994,-11.7188,  6.1798,  1.2512
1495411169.1958820820,1495411169.1981658936, -1.1118, -0.1619,  0.0994,-11.7188,  6.1798,  1.2512
1495411169.1982400417,1495411169.2007548809, -1.1118, -0.1619,  0.0994,-12.0087,  7.6904,  1.8158
1495411169.2008299828,1495411169.2032260895, -1.1118, -0.1619,  0.0994,-12.0087,  7.6904,  1.8158
1495411169.2032990456,1495411169.2056870461, -1.1118, -0.1643,  0.1104,-12.0087,  7.6904,  1.8158
1495411169.2057609558,1495411169.2081611156, -1.1091, -0.1643,  0.1104,-12.0087,  7.6904,  1.8158
1495411169.2082350254,1495411169.2106719017, -1.1091, -0.1643,  0.1104,-12.0087,  9.4299,  2.4109
1495411169.2107470036,1495411169.2131400108, -1.1091, -0.1643,  0.1104,-11.9629,  9.4299,  2.4109
1495411169.2132151127,1495411169.2156128883, -1.1091, -0.1643,  0.1104,-11.9629,  9.4299,  2.4109
1495411169.2156870365,1495411169.2180790901, -1.1091, -0.1643,  0.1104,-11.9629,  9.4299,  2.4109
1495411169.2181529999,1495411169.2205638885, -1.1091, -0.1643,  0.1104,-11.9629,  9.4299,  2.8229
1495411169.2206389904,1495411169.2230339050, -1.1091, -0.1643,  0.1104,-11.0779,  9.9945,  2.8229
1495411169.2231080532,1495411169.2254989147, -1.1091, -0.1675,  0.1367,-11.0779,  9.9945,  2.8229
1495411169.2256879807,1495411169.2280910015, -1.1082, -0.1675,  0.1367,-11.0779,  9.9945,  2.8229
1495411169.2281649113,1495411169.2305769920, -1.1082, -0.1675,  0.1367,-11.0779,  9.9945,  2.8229
1495411169.2306509018,1495411169.2330589294, -1.1082, -0.1675,  0.1367, -9.6283,  9.5215,  3.2806
1495411169.2331299782,1495411169.2356939316, -1.1082, -0.1675,  0.1367, -9.6283,  9.5215,  3.2806
1495411169.2357649803,1495411169.2380559444, -1.1082, -0.1675,  0.1367, -9.6283,  9.5215,  3.2806
1495411169.2381260395,1495411169.2406339645, -1.1082, -0.1675,  0.1367, -9.6283,  9.5215,  3.2806
1495411169.2407059669,1495411169.2430720329, -1.1082, -0.1675,  0.1367, -9.4147,  8.2703,  3.1891
1495411169.2431430817,1495411169.2462630272, -1.1082, -0.1746,  0.1294, -9.4147,  8.2703,  3.1891
1495411169.2463369370,1495411169.2486131191, -1.1147, -0.1746,  0.1294, -9.4147,  8.2703,  3.1891
1495411169.2486848831,1495411169.2510480881, -1.1147, -0.1746,  0.1294, -9.4147,  8.2703,  3.1891
1495411169.2511200905,1495411169.2534029484, -1.1147, -0.1746,  0.1294, -8.7738,  6.6376,  2.2430
1495411169.2534730434,1495411169.2557480335, -1.1147, -0.1746,  0.1294, -8.7738,  6.6376,  2.2430
1495411169.2558178902,1495411169.2580931187, -1.1147, -0.1746,  0.1294, -8.7738,  6.6376,  2.2430
1495411169.2581629753,1495411169.2604570389, -1.1147, -0.1746,  0.1294, -8.7738,  6.6376,  2.2430
1495411169.2605280876,1495411169.2628030777, -1.1147, -0.1746,  0.1294, -8.7738,  6.6376,  1.1292
1495411169.2628729343,1495411169.2651491165, -1.1147, -0.1746,  0.1304, -7.9803,  4.2114,  1.1292
1495411169.2652189732,1495411169.2674961090, -1.1084, -0.1794,  0.1304, -7.9803,  4.2114,  1.1292
1495411169.2675659657,1495411169.2698879242, -1.1084, -0.1794,  0.1304, -7.9803,  4.2114,  1.1292
1495411169.2699580193,1495411169.2722330093, -1.1084, -0.1794,  0.1304, -7.9803,  4.2114,  1.1292
1495411169.2723031044,1495411169.2745809555, -1.1084, -0.1794,  0.1304, -7.0343,  1.0223, -0.1678
1495411169.2746520042,1495411169.2769250870, -1.1084, -0.1794,  0.1304, -7.0343,  1.0223, -0.1678
1495411169.2769949436,1495411169.2793200016, -1.1084, -0.1794,  0.1304, -7.0343,  1.0223, -0.1678
1495411169.2793900967,1495411169.2816619873, -1.1084, -0.1794,  0.1304, -7.0343,  1.0223, -0.1678
1495411169.2817320824,1495411169.2840089798, -1.1084, -0.1794,  0.1304, -7.0343,  1.0223, -1.3428
1495411169.2840778828,1495411169.2863569260, -1.1045, -0.1848,  0.1331, -5.9204, -1.8463, -1.3428
1495411169.2864251137,1495411169.2887039185, -1.1045, -0.1848,  0.1331, -5.9204, -1.8463, -1.3428
1495411169.2887730598,1495411169.2911460400, -1.1045, -0.1848,  0.1331, -5.9204, -1.8463, -1.3428
1495411169.2912149429,1495411169.2934970856, -1.1045, -0.1848,  0.1331, -5.9204, -1.8463, -1.3428
1495411169.2935650349,1495411169.2958459854, -1.1045, -0.1848,  0.1331, -4.4250, -3.9520, -3.0212
1495411169.2959148884,1495411169.2981970310, -1.1045, -0.1848,  0.1331, -4.4250, -3.9520, -3.0212
1495411169.2982659340,1495411169.3007891178, -1.1045, -0.1848,  0.1331, -4.4250, -3.9520, -3.0212
1495411169.3008589745,1495411169.3032670021, -1.1045, -0.1848,  0.1331, -4.4250, -3.9520, -3.0212
1495411169.3033380508,1495411169.3057389259, -1.1045, -0.1797,  0.1072, -0.5188, -5.7831, -4.2114
1495411169.3058099747,1495411169.3082139492, -1.1150, -0.1797,  0.1072, -3.5553, -5.7831, -4.2114
1495411169.3082849979,1495411169.3106999397, -1.1150, -0.1797,  0.1072, -3.5553, -5.7831, -4.2114
1495411169.3107709885,1495411169.3131771088, -1.1150, -0.1797,  0.1072, -3.5553, -5.7831, -4.2114
1495411169.3132469654,1495411169.3156468868, -1.1150, -0.1797,  0.1072, -3.5553, -5.7831, -6.4087
1495411169.3157169819,1495411169.3181180954, -1.1150, -0.1797,  0.1072, -2.5330, -6.8054, -6.4087
1495411169.3181889057,1495411169.3205280304, -1.1150, -0.1797,  0.1072, -2.5330, -6.8054, -6.4087
1495411169.3205990791,1495411169.3228828907, -1.1150, -0.1797,  0.1072, -2.5330, -6.8054, -6.4087
1495411169.3229529858,1495411169.3252370358, -1.1150, -0.1797,  0.1064, -2.5330, -6.8054, -6.4087
1495411169.3253068924,1495411169.3275840282, -1.1125, -0.1760,  0.1064, -1.3428, -7.8888, -8.8043
1495411169.3277699947,1495411169.3301079273, -1.1125, -0.1760,  0.1064, -1.3428, -7.8888, -8.8043
1495411169.3301799297,1495411169.3325889111, -1.1125, -0.1760,  0.1064, -1.3428, -7.8888, -8.8043
1495411169.3326599598,1495411169.3350660801, -1.1125, -0.1760,  0.1064, -1.3428, -7.8888, -8.8043
1495411169.3351380825,1495411169.3375461102, -1.1125, -0.1760,  0.1064, -1.3428, -8.6060,-10.8795
1495411169.3376219273,1495411169.3401200771, -1.1125, -0.1760,  0.1064, -1.7853, -8.6060,-10.8795
1495411169.3401949406,1495411169.3426020145, -1.1125, -0.1760,  0.1064, -1.7853, -8.6060,-10.8795
1495411169.3426771164,1495411169.3450860977, -1.1125, -0.1760,  0.1064, -1.7853, -8.6060,-10.8795
1495411169.3451609612,1495411169.3481850624, -1.1133, -0.1650,  0.1057, -1.7853, -8.6060,-12.5427
1495411169.3482630253,1495411169.3507549763, -1.1133, -0.1650,  0.1057, -2.5940, -9.0942,-12.5427
1495411169.3508300781,1495411169.3531088829, -1.1133, -0.1650,  0.1057, -2.5940, -9.0942,-12.5427
1495411169.3531839848,1495411169.3555490971, -1.1133, -0.1650,  0.1057, -2.5940, -9.0942,-12.5427
1495411169.3557829857,1495411169.3580648899, -1.1133, -0.1650,  0.1057, -2.5940, -9.0942,-13.4735
1495411169.3581399918,1495411169.3606119156, -1.1133, -0.1650,  0.1057, -3.1433, -8.9264,-13.4735
1495411169.3606870174,1495411169.3629710674, -1.1133, -0.1650,  0.1057, -3.1433, -8.9264,-13.4735
1495411169.3630440235,1495411169.3653209209, -1.1133, -0.1650,  0.0950, -3.1433, -8.9264,-13.4735
1495411169.3653950691,1495411169.3676710129, -1.1165, -0.1531,  0.0950, -3.1433, -8.9264,-13.4735
1495411169.3677449226,1495411169.3700780869, -1.1165, -0.1531,  0.0950, -4.5013, -8.8501,-13.9465
1495411169.3701519966,1495411169.3724288940, -1.1165, -0.1531,  0.0950, -4.5013, -8.8501,-13.9465
1495411169.3725030422,1495411169.3747770786, -1.1165, -0.1531,  0.0950, -4.5013, -8.8501,-13.9465
1495411169.3748509884,1495411169.3771328926, -1.1165, -0.1531,  0.0950, -4.5013, -8.8501,-13.9465
1495411169.3772060871,1495411169.3795170784, -1.1165, -0.1531,  0.0950, -4.5013, -4.9438,-13.5651
1495411169.3795900345,1495411169.3820009232, -1.1165, -0.1531,  0.0950, -4.9896, -7.5836,-13.5651
1495411169.3820750713,1495411169.3844819069, -1.1165, -0.1531,  0.0950, -4.9896, -7.5836,-13.5651
1495411169.3845551014,1495411169.3869640827, -1.1174, -0.1462,  0.0879, -4.9896, -7.5836,-13.5651
1495411169.3870370388,1495411169.3894529343, -1.1174, -0.1462,  0.0879, -4.9896, -7.5836,-13.5651
1495411169.3895258904,1495411169.3918108940, -1.1174, -0.1462,  0.0879, -5.7678, -6.3934,-12.3749
1495411169.3918840885,1495411169.3941659927, -1.1174, -0.1462,  0.0879, -5.7678, -6.3934,-12.3749
1495411169.3942379951,1495411169.3965239525, -1.1174, -0.1462,  0.0879, -5.7678, -6.3934,-12.3749
1495411169.3965969086,1495411169.3988800049, -1.1174, -0.1462,  0.0879, -5.7678, -6.3934,-12.3749
1495411169.3989520073,1495411169.4012470245, -1.1174, -0.1462,  0.0879, -6.3324, -4.7760,-11.4441
1495411169.4013209343,1495411169.4036109447, -1.1174, -0.1462,  0.0879, -6.3324, -4.7760,-11.4441
1495411169.4036829472,1495411169.4059679508, -1.1174, -0.1362,  0.0857, -6.3324, -4.7760,-11.4441
1495411169.4060409069,1495411169.4083290100, -1.1245, -0.1362,  0.0857, -6.3324, -4.7760,-11.4441
1495411169.4084019661,1495411169.4107971191, -1.1245, -0.1362,  0.0857, -6.3324, -4.7760,-10.2539
1495411169.4108710289,1495411169.4131538868, -1.1245, -0.1362,  0.0857, -6.8817, -3.7689,-10.2539
1495411169.4132258892,1495411169.4155108929, -1.1245, -0.1362,  0.0857, -6.8817, -3.7689,-10.2539
1495411169.4155840874,1495411169.4178690910, -1.1245, -0.1362,  0.0857, -6.8817, -3.7689,-10.2539
1495411169.4179410934,1495411169.4203529358, -1.1245, -0.1362,  0.0857, -6.8817, -3.7689,-10.2539
1495411169.4204258919,1495411169.4227099419, -1.1245, -0.1362,  0.0857, -7.3853, -2.6398, -8.3923
1495411169.4227809906,1495411169.4250650406, -1.1245, -0.1362,  0.0857, -7.3853, -2.6398, -8.3923
1495411169.4251348972,1495411169.4274260998, -1.1201, -0.1396,  0.0908, -7.3853, -2.6398, -8.3923
1495411169.4274959564,1495411169.4298610687, -1.1201, -0.1396,  0.0908, -7.3853, -2.6398, -8.3923
1495411169.4300529957,1495411169.4324650764, -1.1201, -0.1396,  0.0908, -7.3853, -0.9155, -6.2256
1495411169.4325358868,1495411169.4349560738, -1.1201, -0.1396,  0.0908, -7.2479, -0.9155, -6.2256
1495411169.4350259304,1495411169.4374411106, -1.1201, -0.1396,  0.0908, -7.2479, -0.9155, -6.2256
1495411169.4375119209,1495411169.4399440289, -1.1201, -0.1396,  0.0908, -7.2479, -0.9155, -6.2256
1495411169.4400138855,1495411169.4424870014, -1.1201, -0.1396,  0.0908, -7.2479, -0.9155, -6.1493
1495411169.4425590038,1495411169.4448430538, -1.1201, -0.1396,  0.0908, -6.6223,  0.5646, -6.1493
1495411169.4449129105,1495411169.4472010136, -1.1243, -0.1431,  0.1047, -6.6223,  0.5646, -6.1493
1495411169.4472720623,1495411169.4496479034, -1.1243, -0.1431,  0.1047, -6.6223,  0.5646, -6.1493
1495411169.4497189522,1495411169.4520869255, -1.1243, -0.1431,  0.1047, -6.6223,  0.5646, -6.1493
1495411169.4521589279,1495411169.4545340538, -1.1243, -0.1431,  0.1047, -6.4087,  0.7629, -5.5084
1495411169.4546051025,1495411169.4573450089, -1.1243, -0.1431,  0.1047, -6.4087,  0.7629, -5.5084
1495411169.4574201107,1495411169.4597899914, -1.1243, -0.1431,  0.1047, -6.4087,  0.7629, -5.5084
1495411169.4598619938,1495411169.4621469975, -1.1243, -0.1431,  0.1047, -6.4087,  0.7629, -5.5084
1495411169.4622170925,1495411169.4645380974, -1.1243, -0.1431,  0.1047, -5.4321,  0.5646, -5.3711
1495411169.4646100998,1495411169.4668879509, -1.1287, -0.1475,  0.1077, -5.4321,  0.5646, -5.3711
1495411169.4669589996,1495411169.4692869186, -1.1287, -0.1475,  0.1077, -5.4321,  0.5646, -5.3711
1495411169.4693570137,1495411169.4716310501, -1.1287, -0.1475,  0.1077, -5.4321,  0.5646, -5.3711
1495411169.4717020988,1495411169.4739770889, -1.1287, -0.1475,  0.1077, -5.4321,  0.5646, -5.3711
1495411169.4740469456,1495411169.4763219357, -1.1287, -0.1475,  0.1077, -3.6774,  0.9460, -5.4626
1495411169.4763939381,1495411169.4786660671, -1.1287, -0.1475,  0.1077, -3.6774,  0.9460, -5.4626
1495411169.4787359238,1495411169.4810159206, -1.1287, -0.1475,  0.1077, -3.6774,  0.9460, -5.4626
1495411169.4810869694,1495411169.4833629131, -1.1287, -0.1475,  0.1077, -3.6774,  0.9460, -5.4626
1495411169.4834330082,1495411169.4857110977, -1.1287, -0.1494,  0.1162, -2.9297,  1.0834, -5.9509
1495411169.4857809544,1495411169.4880549908, -1.1370, -0.1494,  0.1162, -2.9297,  1.0834, -5.9509
1495411169.4881250858,1495411169.4904708862, -1.1370, -0.1494,  0.1162, -2.9297,  1.0834, -5.9509
1495411169.4905409813,1495411169.4928190708, -1.1370, -0.1494,  0.1162, -2.9297,  1.0834, -5.9509
1495411169.4928879738,1495411169.4951701164, -1.1370, -0.1494,  0.1162, -2.9297,  1.0834, -5.9509
1495411169.4952390194,1495411169.4975099564, -1.1370, -0.1494,  0.1162, -1.3428,  1.5717, -7.1259
1495411169.4975800514,1495411169.4999940395, -1.1370, -0.1494,  0.1162, -1.3428,  1.5717, -7.1259
1495411169.5000638962,1495411169.5023379326, -1.1370, -0.1494,  0.1162, -1.3428,  1.5717, -7.1259
1495411169.5024070740,1495411169.5046849251, -1.1370, -0.1494,  0.1162, -1.3428,  1.5717, -7.1259
1495411169.5047550201,1495411169.5070300102, -1.1438, -0.1443,  0.1257, -1.1749,  1.6479, -8.2092
1495411169.5071001053,1495411169.5094139576, -1.1438, -0.1443,  0.1257, -1.1749,  1.6479, -8.2092
1495411169.5094850063,1495411169.5117700100, -1.1438, -0.1443,  0.1257, -1.1749,  1.6479, -8.2092
1495411169.5118401051,1495411169.5141170025, -1.1438, -0.1443,  0.1257, -1.1749,  1.6479, -8.2092
1495411169.5141880512,1495411169.5164699554, -1.1438, -0.1443,  0.1257, -1.1749,  1.6479,-10.2081
1495411169.5165419579,1495411169.5188190937, -1.1438, -0.1443,  0.1257, -1.2207,  1.3580,-10.2081
1495411169.5188920498,1495411169.5211908817, -1.1438, -0.1443,  0.1257, -1.2207,  1.3580,-10.2081
1495411169.5212640762,1495411169.5235390663, -1.1438, -0.1443,  0.1257, -1.2207,  1.3580,-10.2081
1495411169.5236101151,1495411169.5258929729, -1.1438, -0.1350,  0.1255, -1.2207,  1.3580,-10.2081
1495411169.5259659290,1495411169.5282430649, -1.1545, -0.1350,  0.1255, -1.7090,  0.3815,-12.3291
1495411169.5283169746,1495411169.5306990147, -1.1545, -0.1350,  0.1255, -1.7090,  0.3815,-12.3291
1495411169.5308849812,1495411169.5332798958, -1.1545, -0.1350,  0.1255, -1.7090,  0.3815,-12.3291
1495411169.5333540440,1495411169.5357460976, -1.1545, -0.1350,  0.1255, -1.7090,  0.3815,-12.3291
1495411169.5358200073,1495411169.5382161140, -1.1545, -0.1350,  0.1255, -1.7090, -0.7172,-13.9160
1495411169.5382900238,1495411169.5406930447, -1.1545, -0.1350,  0.1255, -3.6774, -0.7172,-13.9160
1495411169.5407669544,1495411169.5432970524, -1.1545, -0.1350,  0.1255, -3.6774, -0.7172,-13.9160
1495411169.5433709621,1495411169.5456590652, -1.1545, -0.1350,  0.1155, -3.6774, -0.7172,-13.9160
1495411169.5457329750,1495411169.5480220318, -1.1750, -0.1340,  0.1155, -3.6774, -0.7172,-13.9160
1495411169.5480959415,1495411169.5506041050, -1.1750, -0.1340,  0.1155, -7.3090, -1.9836,-14.2365
1495411169.5506789684,1495411169.5530450344, -1.1750, -0.1340,  0.1155, -7.3090, -1.9836,-14.2365
1495411169.5531189442,1495411169.5562319756, -1.1750, -0.1340,  0.1155, -7.3090, -1.9836,-14.2365
1495411169.5563080311,1495411169.5585858822, -1.1750, -0.1340,  0.1155, -7.3090, -1.9836,-14.2365
1495411169.5586609840,1495411169.5610148907, -1.1750, -0.1340,  0.1155,-12.1155, -2.8992,-14.9994
1495411169.5610918999,1495411169.5633690357, -1.1750, -0.1340,  0.1155,-12.1155, -2.8992,-14.9994
1495411169.5634460449,1495411169.5657598972, -1.1750, -0.1340,  0.1208,-12.1155, -2.8992,-14.9994
1495411169.5658359528,1495411169.5681180954, -1.1809, -0.1370,  0.1208,-12.1155, -2.8992,-14.9994
1495411169.5681929588,1495411169.5704801083, -1.1809, -0.1370,  0.1208,-16.8610, -3.2043,-15.4266
1495411169.5705580711,1495411169.5728418827, -1.1809, -0.1370,  0.1208,-16.8610, -3.2043,-15.4266
1495411169.5729179382,1495411169.5751969814, -1.1809, -0.1370,  0.1208,-16.8610, -3.2043,-15.4266
1495411169.5752739906,1495411169.5775508881, -1.1809, -0.1370,  0.1208,-16.8610, -3.2043,-15.4266
1495411169.5776278973,1495411169.5799150467, -1.1809, -0.1370,  0.1208,-16.8610, -3.2043,-16.5100
1495411169.5799930096,1495411169.5822730064, -1.1809, -0.1370,  0.1208,-21.4386, -3.2349,-16.5100
1495411169.5823500156,1495411169.5846269131, -1.1809, -0.1370,  0.1208,-21.4386, -3.2349,-16.5100
1495411169.5847029686,1495411169.5869839191, -1.1721, -0.1423,  0.1279,-21.4386, -3.2349,-16.5100
1495411169.5870590210,1495411169.5893421173, -1.1721, -0.1423,  0.1279,-21.4386, -3.2349,-16.5100
1495411169.5894169807,1495411169.5919089317, -1.1721, -0.1423,  0.1279,-27.0844, -2.8381,-17.4561
1495411169.5919868946,1495411169.5942680836, -1.1721, -0.1423,  0.1279,-27.0844, -2.8381,-17.4561
1495411169.5943439007,1495411169.5966219902, -1.1721, -0.1423,  0.1279,-27.0844, -2.8381,-17.4561
1495411169.5966980457,1495411169.5989859104, -1.1721, -0.1423,  0.1279,-27.0844, -2.8381,-17.4561
1495411169.5990610123,1495411169.6015119553, -1.1721, -0.1423,  0.1279,-27.0844, -3.1738,-17.8528
1495411169.6015880108,1495411169.6038739681, -1.1721, -0.1423,  0.1279,-31.9977, -3.1738,-17.8528
1495411169.6039490700,1495411169.6062328815, -1.1721, -0.1560,  0.1140,-31.9977, -3.1738,-17.8528
1495411169.6063089371,1495411169.6085929871, -1.1709, -0.1560,  0.1140,-31.9977, -3.1738,-17.8528
1495411169.6086690426,1495411169.6111021042, -1.1709, -0.1560,  0.1140,-31.9977, -3.1738,-17.8528
1495411169.6111779213,1495411169.6134610176, -1.1709, -0.1560,  0.1140,-37.4603, -3.5858,-18.3868
1495411169.6135370731,1495411169.6158180237, -1.1709, -0.1560,  0.1140,-37.4603, -3.5858,-18.3868
1495411169.6158940792,1495411169.6181809902, -1.1709, -0.1560,  0.1140,-37.4603, -3.5858,-18.3868
1495411169.6182570457,1495411169.6206669807, -1.1709, -0.1560,  0.1140,-37.4603, -3.5858,-18.3868
1495411169.6207439899,1495411169.6231501102, -1.1709, -0.1560,  0.1140,-42.7399, -2.9144,-17.8680
1495411169.6232259274,1495411169.6256389618, -1.1709, -0.1560,  0.1296,-42.7399, -2.9144,-17.8680
1495411169.6257159710,1495411169.6281239986, -1.2122, -0.1978,  0.1296,-42.7399, -2.9144,-17.8680
1495411169.6282000542,1495411169.6306529045, -1.2122, -0.1978,  0.1296,-42.7399, -2.9144,-17.8680
1495411169.6308369637,1495411169.6332480907, -1.2122, -0.1978,  0.1296,-42.7399, -2.7771,-16.7542
1495411169.6333250999,1495411169.6357359886, -1.2122, -0.1978,  0.1296,-46.6309, -2.7771,-16.7542
1495411169.6358120441,1495411169.6382288933, -1.2122, -0.1978,  0.1296,-46.6309, -2.7771,-16.7542
1495411169.6383059025,1495411169.6407270432, -1.2122, -0.1978,  0.1296,-46.6309, -2.7771,-16.7542
1495411169.6408030987,1495411169.6432099342, -1.2122, -0.1978,  0.1296,-46.6309, -2.7771,-16.7542
1495411169.6432869434,1495411169.6456940174, -1.2122, -0.1978,  0.1028,-49.1333, -3.3569,-16.2201
1495411169.6457719803,1495411169.6480579376, -1.2686, -0.2427,  0.1028,-49.1333, -3.3569,-16.2201
1495411169.6481339931,1495411169.6504309177, -1.2686, -0.2427,  0.1028,-49.1333, -3.3569,-16.2201
1495411169.6505079269,1495411169.6527879238, -1.2686, -0.2427,  0.1028,-49.1333, -3.3569,-16.2201
1495411169.6528639793,1495411169.6551430225, -1.2686, -0.2427,  0.1028,-51.9562, -1.9226,-16.1743
1495411169.6552200317,1495411169.6574950218, -1.2686, -0.2427,  0.1028,-51.9562, -1.9226,-16.1743
1495411169.6575720310,1495411169.6600310802, -1.2686, -0.2427,  0.1028,-51.9562, -1.9226,-16.1743
1495411169.6601090431,1495411169.6624760628, -1.2686, -0.2427,  0.1028,-51.9562, -1.9226,-16.1743
1495411169.6625540257,1495411169.6657009125, -1.2686, -0.2427,  0.1028,-51.9562, -1.9226,-16.0828
1495411169.6657810211,1495411169.6680600643, -1.3337, -0.3235,  0.0999,-56.1371, -2.1210,-16.0828
1495411169.6681380272,1495411169.6704659462, -1.3337, -0.3235,  0.0999,-56.1371, -2.1210,-16.0828
1495411169.6705429554,1495411169.6728210449, -1.3337, -0.3235,  0.0999,-56.1371, -2.1210,-16.0828
1495411169.6728980541,1495411169.6751759052, -1.3337, -0.3235,  0.0999,-56.1371, -2.1210,-16.0370
1495411169.6752519608,1495411169.6775329113, -1.3337, -0.3235,  0.0999,-62.2253, -3.2654,-16.0370
1495411169.6776089668,1495411169.6798920631, -1.3337, -0.3235,  0.0999,-62.2253, -3.2654,-16.0370
1495411169.6799681187,1495411169.6822481155, -1.3337, -0.3235,  0.0999,-62.2253, -3.2654,-16.0370
1495411169.6823239326,1495411169.6845989227, -1.3337, -0.3235,  0.0999,-62.2253, -3.2654,-16.0370
1495411169.6846749783,1495411169.6869490147, -1.3206, -0.3245,  0.1023,-64.9109, -1.6174,-19.6838
1495411169.6870260239,1495411169.6893138885, -1.3206, -0.3245,  0.1023,-64.9109, -1.6174,-19.6838
1495411169.6893899441,1495411169.6916699409, -1.3206, -0.3245,  0.1023,-64.9109, -1.6174,-19.6838
1495411169.6917469501,1495411169.6940228939, -1.3206, -0.3245,  0.1023,-64.9109, -1.6174,-19.6838
1495411169.6940999031,1495411169.6963820457, -1.3206, -0.3245,  0.1023,-64.9109, -1.6174,-31.1584
1495411169.6964590549,1495411169.6987369061, -1.3206, -0.3245,  0.1023,-68.1152,  2.9144,-31.1584
1495411169.6988129616,1495411169.7011599541, -1.3206, -0.3245,  0.1023,-68.1152,  2.9144,-31.1584
1495411169.7012369633,1495411169.7035129070, -1.3206, -0.3245,  0.1023,-68.1152,  2.9144,-31.1584
1495411169.7035911083,1495411169.7058739662, -1.3206, -0.3245,  0.1189,-68.1152,  2.9144,-31.1584
1495411169.7059500217,1495411169.7082350254, -1.3118, -0.3538,  0.1189,-73.7762, 11.6730,-45.8984
1495411169.7083139420,1495411169.7107470036, -1.3118, -0.3538,  0.1189,-73.7762, 11.6730,-45.8984
1495411169.7108280659,1495411169.7131159306, -1.3118, -0.3538,  0.1189,-73.7762, 11.6730,-45.8984
1495411169.7131950855,1495411169.7154800892, -1.3118, -0.3538,  0.1189,-73.7762, 11.6730,-45.8984
1495411169.7155580521,1495411169.7178421021, -1.3118, -0.3538,  0.1189,-73.7762, 19.9738,-59.0515
1495411169.7179210186,1495411169.7203989029, -1.3118, -0.3538,  0.1189,-79.3457, 19.9738,-59.0515
1495411169.7204790115,1495411169.7228860855, -1.3118, -0.3538,  0.1189,-79.3457, 19.9738,-59.0515
1495411169.7229659557,1495411169.7253649235, -1.3118, -0.3538,  0.1189,-79.3457, 19.9738,-59.0515
1495411169.7254440784,1495411169.7278549671, -1.4038, -0.3904,  0.1270,-79.3457, 19.9738,-71.5942
1495411169.7279329300,1495411169.7303509712, -1.4038, -0.3904,  0.1270,-86.8225, 25.3448,-71.5942
1495411169.7304298878,1495411169.7328379154, -1.4038, -0.3904,  0.1270,-86.8225, 25.3448,-71.5942
1495411169.7330279350,1495411169.7354419231, -1.4038, -0.3904,  0.1270,-86.8225, 25.3448,-71.5942
1495411169.7355198860,1495411169.7379269600, -1.4038, -0.3904,  0.1270,-86.8225, 25.3448,-71.5942
1495411169.7380070686,1495411169.7404620647, -1.4038, -0.3904,  0.1270,-95.3369, 24.3378,-87.1277
1495411169.7405409813,1495411169.7429521084, -1.4038, -0.3904,  0.1270,-95.3369, 24.3378,-87.1277
1495411169.7430329323,1495411169.7454340458, -1.4038, -0.3904,  0.1270,-95.3369, 24.3378,-87.1277
1495411169.7455139160,1495411169.7480320930, -1.4290, -0.3618,  0.1367,-95.3369, 24.3378,-87.1277
1495411169.7481110096,1495411169.7505741119, -1.4290, -0.3618,  0.1367,-103.4088, 21.7590,-105.1941
1495411169.7506549358,1495411169.7529408932, -1.4290, -0.3618,  0.1367,-103.4088, 21.7590,-105.1941
1495411169.7530190945,1495411169.7567019463, -1.4290, -0.3618,  0.1367,-103.4088, 21.7590,-105.1941
1495411169.7567839622,1495411169.7590661049, -1.4290, -0.3618,  0.1367,-103.4088, 21.7590,-105.1941
1495411169.7591450214,1495411169.7615420818, -1.4290, -0.3618,  0.1367,-107.2388, 17.0441,-122.5739
1495411169.7616219521,1495411169.7639019489, -1.4290, -0.3618,  0.1367,-107.2388, 17.0441,-122.5739
1495411169.7639811039,1495411169.7662649155, -1.4290, -0.3464,  0.1321,-107.2388, 17.0441,-122.5739
1495411169.7663450241,1495411169.7686190605, -1.4504, -0.3464,  0.1321,-107.2388, 17.0441,-122.5739
1495411169.7686979771,1495411169.7710089684, -1.4504, -0.3464,  0.1321,-110.9009, 10.0555,-139.2975
1495411169.7710900307,1495411169.7733740807, -1.4504, -0.3464,  0.1321,-110.9009, 10.0555,-139.2975
1495411169.7734529972,1495411169.7757310867, -1.4504, -0.3464,  0.1321,-110.9009, 10.0555,-139.2975
1495411169.7758100033,1495411169.7780880928, -1.4504, -0.3464,  0.1321,-110.9009, 10.0555,-139.2975
1495411169.7781670094,1495411169.7804551125, -1.4504, -0.3464,  0.1321,-110.9009, 10.0555,-139.2975
1495411169.7805349827,1495411169.7828130722, -1.4504, -0.3464,  0.1321,-113.0371,  1.8005,-152.9846
1495411169.7828900814,1495411169.7851760387, -1.4504, -0.3464,  0.1321,-113.0371,  1.8005,-152.9846
1495411169.7852520943,1495411169.7875270844, -1.3674, -0.3040,  0.1191,-113.0371,  1.8005,-152.9846
1495411169.7876050472,1495411169.7899661064, -1.3674, -0.3040,  0.1191,-113.0371,  1.8005,-152.9846
1495411169.7900431156,1495411169.7923269272, -1.3674, -0.3040,  0.1191,-110.0922, -2.9144,-161.1633
1495411169.7924039364,1495411169.7946810722, -1.3674, -0.3040,  0.1191,-110.0922, -2.9144,-161.1633
1495411169.7947580814,1495411169.7970368862, -1.3674, -0.3040,  0.1191,-110.0922, -2.9144,-161.1633
1495411169.7971129417,1495411169.7995700836, -1.3674, -0.3040,  0.1191,-110.0922, -2.9144,-161.1633
1495411169.7996470928,1495411169.8019320965, -1.3674, -0.3040,  0.1191,-110.0922, -2.9144,-162.7808
1495411169.8020079136,1495411169.8043000698, -1.3674, -0.3040,  0.1191,-109.2682, -7.4158,-162.7808
1495411169.8043770790,1495411169.8066589832, -1.3049, -0.2788,  0.1172,-109.2682, -7.4158,-162.7808
1495411169.8067359924,1495411169.8090159893, -1.2812, -0.2788,  0.1172,-109.2682, -7.4158,-162.7808
1495411169.8090939522,1495411169.8115921021, -1.2812, -0.2788,  0.1172,-109.2682, -7.4158,-162.7808
1495411169.8116700649,1495411169.8140559196, -1.2812, -0.2788,  0.1172,-107.4066, -8.0719,-157.1655
1495411169.8141338825,1495411169.8165249825, -1.2812, -0.2788,  0.1172,-107.4066, -8.0719,-157.1655
1495411169.8166029453,1495411169.8189969063, -1.2812, -0.2788,  0.1172,-107.4066, -8.0719,-157.1655
1495411169.8190739155,1495411169.8214790821, -1.2812, -0.2788,  0.1172,-107.4066, -8.0719,-157.1655
1495411169.8215560913,1495411169.8239519596, -1.2812, -0.2788,  0.1172,-98.8312, -8.5297,-142.9749
1495411169.8240299225,1495411169.8264200687, -1.2812, -0.2568,  0.0835,-98.8312, -8.5297,-142.9749
1495411169.8264989853,1495411169.8288869858, -1.2100, -0.2568,  0.0835,-98.8312, -8.5297,-142.9749
1495411169.8289649487,1495411169.8313660622, -1.2100, -0.2568,  0.0835,-98.8312, -8.5297,-142.9749
1495411169.8314440250,1495411169.8338339329, -1.2100, -0.2568,  0.0835,-98.8312, -8.5297,-121.6125
1495411169.8340148926,1495411169.8364078999, -1.2100, -0.2568,  0.0835,-92.1936, -9.3994,-121.6125
1495411169.8364861012,1495411169.8388829231, -1.2100, -0.2568,  0.0835,-92.1936, -9.3994,-121.6125
1495411169.8389608860,1495411169.8413538933, -1.2100, -0.2568,  0.0835,-92.1936, -9.3994,-121.6125
1495411169.8414309025,1495411169.8438239098, -1.2100, -0.2568,  0.0835,-92.1936, -9.3994,-121.6125
1495411169.8439021111,1495411169.8462939262, -1.2100, -0.1943,  0.0710,-83.6029,-11.7188,-95.5200
1495411169.8463730812,1495411169.8487620354, -1.0703, -0.2319,  0.0710,-83.6029,-11.7188,-95.5200
1495411169.8488409519,1495411169.8512730598, -1.0703, -0.2319,  0.0710,-83.6029,-11.7188,-95.5200
1495411169.8513510227,1495411169.8536379337, -1.0703, -0.2319,  0.0710,-83.6029,-11.7188,-95.5200
1495411169.8537170887,1495411169.8560960293, -1.0703, -0.2319,  0.0710,-69.6411,-13.6871,-67.1844
1495411169.8561770916,1495411169.8584649563, -1.0703, -0.2319,  0.0710,-69.6411,-13.6871,-67.1844
1495411169.8585429192,1495411169.8608360291, -1.0703, -0.2319,  0.0710,-69.6411,-13.6871,-67.1844
1495411169.8609158993,1495411169.8631999493, -1.0703, -0.2319,  0.0710,-69.6411,-13.6871,-67.1844
1495411169.8632779121,1495411169.8657209873, -1.0703, -0.2319,  0.0710,-69.6411,-13.6871,-38.0859
1495411169.8657999039,1495411169.8680820465, -0.9604, -0.2400,  0.0330,-58.2123,-15.2893,-38.0859
1495411169.8681609631,1495411169.8719060421, -0.9604, -0.2400,  0.0330,-58.2123,-15.2893,-38.0859
1495411169.8719890118,1495411169.8742690086, -0.9604, -0.2400,  0.0330,-58.2123,-15.2893,-38.0859
1495411169.8743491173,1495411169.8766260147, -0.9604, -0.2400,  0.0330,-50.3998,-18.1732, -9.2468
1495411169.8767030239,1495411169.8789820671, -0.9604, -0.2400,  0.0330,-47.2565,-18.1732, -9.2468
1495411169.8790590763,1495411169.8813729286, -0.9604, -0.2400,  0.0330,-47.2565,-18.1732, -9.2468
1495411169.8814499378,1495411169.8837280273, -0.9604, -0.2400,  0.0330,-47.2565,-18.1732, -9.2468
1495411169.8838050365,1495411169.8860819340, -0.9604, -0.2400,  0.0198,-47.2565,-18.1732, -9.2468
1495411169.8861589432,1495411169.8884348869, -0.8884, -0.2778,  0.0198,-33.6151,-19.5923, 16.7542
1495411169.8885130882,1495411169.8908329010, -0.8884, -0.2778,  0.0198,-33.6151,-19.5923, 16.7542
1495411169.8909120560,1495411169.8931910992, -0.8884, -0.2778,  0.0198,-33.6151,-19.5923, 16.7542
1495411169.8932700157,1495411169.8955490589, -0.8884, -0.2778,  0.0198,-33.6151,-19.5923, 16.7542
1495411169.8956279755,1495411169.8979101181, -0.8884, -0.2778,  0.0198,-18.2495,-20.6909, 38.1927
1495411169.8979880810,1495411169.9002730846, -0.8884, -0.2778,  0.0198,-18.2495,-20.6909, 38.1927
1495411169.9003520012,1495411169.9026310444, -0.8884, -0.2778,  0.0198,-18.2495,-20.6909, 38.1927
1495411169.9027099609,1495411169.9049849510, -0.8884, -0.2778,  0.0198,-18.2495,-20.6909, 38.1927
1495411169.9050629139,1495411169.9073450565, -0.8660, -0.3240,  0.0413,-18.2495,-20.6909, 57.7240
1495411169.9074239731,1495411169.9097070694, -0.8660, -0.3240,  0.0413, -5.5695,-20.8588, 55.3894
1495411169.9097840786,1495411169.9120581150, -0.8660, -0.3240,  0.0413, -5.5695,-20.8588, 55.3894
1495411169.9121348858,1495411169.9144110680, -0.8660, -0.3240,  0.0413, -5.5695,-20.8588, 55.3894
1495411169.9144868851,1495411169.9167690277, -0.8660, -0.3240,  0.0413, -5.5695,-20.8588, 55.3894
1495411169.9168450832,1495411169.9191269875, -0.8660, -0.3240,  0.0413,  7.2174,-21.4233, 68.9392
1495411169.9192039967,1495411169.9216649532, -0.8660, -0.3240,  0.0413,  7.2174,-21.4233, 68.9392
1495411169.9217429161,1495411169.9240229130, -0.8660, -0.3240,  0.0413,  7.2174,-21.4233, 68.9392
1495411169.9241011143,1495411169.9263839722, -0.8660, -0.3240,  0.0188,  7.2174,-21.4233, 68.9392
1495411169.9264609814,1495411169.9287409782, -0.8696, -0.3704,  0.0188,  7.2174,-21.4233, 80.1239
1495411169.9288179874,1495411169.9313650131, -0.8696, -0.3704,  0.0188, 17.4561,-22.0184, 80.1239
1495411169.9314448833,1495411169.9338378906, -0.8696, -0.3704,  0.0188, 17.4561,-22.0184, 80.1239
1495411169.9339179993,1495411169.9363110065, -0.8696, -0.3704,  0.0188, 17.4561,-22.0184, 80.1239
1495411169.9365170002,1495411169.9389169216, -0.8696, -0.3704,  0.0188, 17.4561,-22.0184, 80.1239
1495411169.9389979839,1495411169.9414360523, -0.8696, -0.3704,  0.0188, 23.4375,-23.9410, 88.7451
1495411169.9415159225,1495411169.9439089298, -0.8696, -0.3704,  0.0188, 23.4375,-23.9410, 88.7451
1495411169.9439890385,1495411169.9463870525, -0.8696, -0.4329,  0.0347, 23.4375,-23.9410, 88.7451
1495411169.9464659691,1495411169.9488549232, -0.8574, -0.4011,  0.0347, 23.4375,-23.9410, 88.7451
1495411169.9489340782,1495411169.9513380527, -0.8574, -0.4011,  0.0347, 25.8179,-25.4669, 94.7571
1495411169.9514179230,1495411169.9538359642, -0.8574, -0.4011,  0.0347, 25.8179,-25.4669, 94.7571
1495411169.9539170265,1495411169.9561951160, -0.8574, -0.4011,  0.0347, 25.8179,-25.4669, 94.7571
1495411169.9562730789,1495411169.9585609436, -0.8574, -0.4011,  0.0347, 25.8179,-25.4669, 94.7571
1495411169.9586400986,1495411169.9611749649, -0.8574, -0.4011,  0.0347, 25.8179,-28.1067, 97.7936
1495411169.9612560272,1495411169.9636280537, -0.8574, -0.4011,  0.0347, 26.4435,-28.1067, 97.7936
1495411169.9637079239,1495411169.9668478966, -0.8574, -0.4011,  0.0347, 26.4435,-28.1067, 97.7936
1495411169.9669299126,1495411169.9692790508, -0.9058, -0.4243,  0.0305, 26.4435,-28.1067, 97.7936
1495411169.9693601131,1495411169.9716451168, -0.9058, -0.4243,  0.0305, 22.5372,-33.4930, 97.7020
1495411169.9717240334,1495411169.9740059376, -0.9058, -0.4243,  0.0305, 20.5231,-33.4930, 97.7020
1495411169.9740869999,1495411169.9763650894, -0.9058, -0.4243,  0.0305, 20.5231,-33.4930, 97.7020
1495411169.9764440060,1495411169.9787240028, -0.9058, -0.4243,  0.0305, 20.5231,-33.4930, 97.7020
1495411169.9788041115,1495411169.9810841084, -0.9058, -0.4243,  0.0305, 20.5231,-33.4930, 97.7020
1495411169.9811649323,1495411169.9834399223, -0.9058, -0.4243,  0.0305, 12.6343,-42.1448, 95.8252
1495411169.9835200310,1495411169.9858050346, -0.9058, -0.4243,  0.0305, 12.6343,-42.1448, 95.8252
1495411169.9858849049,1495411169.9881620407, -0.9285, -0.4390,  0.0330, 12.6343,-42.1448, 95.8252
1495411169.9882409573,1495411169.9905281067, -0.9285, -0.4390,  0.0330, 12.6343,-42.1448, 95.8252
1495411169.9906079769,1495411169.9928839207, -0.9285, -0.4390,  0.0330,  4.8218,-52.0172, 92.1631
1495411169.9929618835,1495411169.9952390194, -0.9285, -0.4390,  0.0330,  4.3488,-52.0172, 92.1631
1495411169.9953169823,1495411169.9975988865, -0.9285, -0.4390,  0.0330,  4.3488,-52.0172, 92.1631
1495411169.9976758957,1495411170.0000019073, -0.9285, -0.4390,  0.0330,  4.3488,-52.0172, 92.1631
1495411170.0000801086,1495411170.0023589134, -0.9285, -0.4390,  0.0330,  4.3488,-52.0172, 92.1631
1495411170.0024371147,1495411170.0047199726, -0.9285, -0.4390,  0.0330, -4.4098,-62.0422, 84.3506
1495411170.0047979355,1495411170.0070729256, -0.9529, -0.4353,  0.0137, -4.4098,-62.0422, 84.3506
1495411170.0071508884,1495411170.0095911026, -0.9529, -0.4353,  0.0137, -4.4098,-62.0422, 84.3506
1495411170.0096681118,1495411170.0119469166, -0.9529, -0.4353,  0.0137, -4.4098,-62.0422, 84.3506
1495411170.0120251179,1495411170.0143098831, -0.9529, -0.4353,  0.0137,-14.7095,-71.2891, 72.8912
1495411170.0143899918,1495411170.0166819096, -0.9529, -0.4353,  0.0137,-14.7095,-71.2891, 72.8912
1495411170.0167610645,1495411170.0190420151, -0.9529, -0.4353,  0.0137,-14.7095,-71.2891, 72.8912
1495411170.0191230774,1495411170.0216200352, -0.9529, -0.4353,  0.0137,-14.7095,-71.2891, 72.8912
1495411170.0217010975,1495411170.0241210461, -0.9529, -0.4353,  0.0137,-14.7095,-71.2891, 61.0046
1495411170.0242009163,1495411170.0266160965, -0.9529, -0.4353,  0.0027,-24.9939,-78.4607, 61.0046
1495411170.0266959667,1495411170.0291109085, -0.9565, -0.4326,  0.0027,-24.9939,-78.4607, 61.0046
1495411170.0291910172,1495411170.0316030979, -0.9565, -0.4326,  0.0027,-24.9939,-78.4607, 61.0046
1495411170.0316829681,1495411170.0340890884, -0.9565, -0.4326,  0.0027,-24.9939,-78.4607, 61.0046
1495411170.0341689587,1495411170.0365788937, -0.9565, -0.4326,  0.0027,-32.6843,-80.0476, 49.8657
1495411170.0366599560,1495411170.0390660763, -0.9565, -0.4326,  0.0027,-32.6843,-80.0476, 49.8657
1495411170.0393040180,1495411170.0415918827, -0.9565, -0.4326,  0.0027,-32.6843,-80.0476, 49.8657
1495411170.0416719913,1495411170.0439579487, -0.9565, -0.4326,  0.0027,-32.6843,-80.0476, 49.8657
1495411170.0440371037,1495411170.0463199615, -0.9565, -0.4326, -0.0015,-39.9323,-77.4994, 40.2527
1495411170.0464010239,1495411170.0486879349, -0.9980, -0.4214, -0.0015,-39.9323,-77.4994, 40.2527
1495411170.0487689972,1495411170.0511639118, -0.9980, -0.4214, -0.0015,-39.9323,-77.4994, 40.2527
1495411170.0512449741,1495411170.0536530018, -0.9980, -0.4214, -0.0015,-39.9323,-77.4994, 40.2527
1495411170.0537331104,1495411170.0561459064, -0.9980, -0.4214, -0.0015,-39.9323,-73.1812, 32.2266
1495411170.0562269688,1495411170.0586340427, -0.9980, -0.4214, -0.0015,-45.3339,-73.1812, 32.2266
1495411170.0587151051,1495411170.0611391068, -0.9980, -0.4214, -0.0015,-45.3339,-73.1812, 32.2266
1495411170.0612208843,1495411170.0636351109, -0.9980, -0.4214, -0.0015,-45.3339,-73.1812, 32.2266
1495411170.0637159348,1495411170.0661230087, -0.9980, -0.4214,  0.0610,-45.3339,-73.1812, 29.2053
1495411170.0662040710,1495411170.0686149597, -1.0083, -0.4246,  0.0254,-51.1475,-66.1926, 29.2053
1495411170.0686950684,1495411170.0711140633, -1.0083, -0.4246,  0.0254,-51.1475,-66.1926, 29.2053
1495411170.0711929798,1495411170.0736079216, -1.0083, -0.4246,  0.0254,-51.1475,-66.1926, 29.2053
1495411170.0736880302,1495411170.0761671066, -1.0083, -0.4246,  0.0254,-51.1475,-66.1926, 29.2053
1495411170.0762469769,1495411170.0786399841, -1.0083, -0.4246,  0.0254,-54.5959,-56.9458, 29.8309
1495411170.0787189007,1495411170.0813789368, -1.0083, -0.4246,  0.0254,-54.5959,-56.9458, 29.8309
1495411170.0814590454,1495411170.0838649273, -1.0083, -0.4246,  0.0254,-54.5959,-56.9458, 29.8309
1495411170.0839440823,1495411170.0863490105, -1.0083, -0.4246,  0.0288,-54.5959,-56.9458, 29.8309
1495411170.0864279270,1495411170.0888330936, -1.0029, -0.4124,  0.0288,-55.1910,-48.4009, 30.3192
1495411170.0889129639,1495411170.0912249088, -1.0029, -0.4124,  0.0288,-55.1910,-48.4009, 30.3192
1495411170.0913050175,1495411170.0935919285, -1.0029, -0.4124,  0.0288,-55.1910,-48.4009, 30.3192
1495411170.0936710835,1495411170.0959579945, -1.0029, -0.4124,  0.0288,-55.1910,-48.4009, 30.3192
1495411170.0960369110,1495411170.0983190536, -1.0029, -0.4124,  0.0288,-55.1910,-42.6178, 30.3650
1495411170.0983970165,1495411170.1007709503, -1.0029, -0.4124,  0.0288,-57.8766,-42.6178, 30.3650
1495411170.1008501053,1495411170.1032519341, -1.0029, -0.4124,  0.0288,-57.8766,-42.6178, 30.3650
1495411170.1033310890,1495411170.1057329178, -1.0029, -0.4124,  0.0288,-57.8766,-42.6178, 30.3650
1495411170.1058120728,1495411170.1082150936, -0.9783, -0.4011,  0.0393,-57.8766,-42.6178, 30.3650
1495411170.1082949638,1495411170.1106390953, -0.9783, -0.4011,  0.0393,-60.1959,-38.4369, 29.7699
1495411170.1107180119,1495411170.1130030155, -0.9783, -0.4011,  0.0393,-60.1959,-38.4369, 29.7699
1495411170.1130819321,1495411170.1153590679, -0.9783, -0.4011,  0.0393,-60.1959,-38.4369, 29.7699
1495411170.1154389381,1495411170.1177160740, -0.9783, -0.4011,  0.0393,-60.1959,-38.4369, 29.7699
1495411170.1177940369,1495411170.1200859547, -0.9783, -0.4011,  0.0393,-60.3485,-36.0870, 29.5715
1495411170.1201651096,1495411170.1224470139, -0.9783, -0.4011,  0.0393,-60.3485,-36.0870, 29.5715
1495411170.1225249767,1495411170.1248118877, -0.9783, -0.4011,  0.0393,-60.3485,-36.0870, 29.5715
1495411170.1248910427,1495411170.1271779537, -0.9783, -0.3955,  0.0625,-60.3485,-36.0870, 29.5715
1495411170.1272571087,1495411170.1296379566, -0.9802, -0.3955,  0.0625,-60.3485,-36.0870, 29.2816
1495411170.1297171116,1495411170.1320149899, -0.9802, -0.3955,  0.0625,-62.8510,-35.6750, 29.2816
1495411170.1320939064,1495411170.1343739033, -0.9802, -0.3955,  0.0625,-62.8510,-35.6750, 29.2816
1495411170.1344540119,1495411170.1367309093, -0.9802, -0.3955,  0.0625,-62.8510,-35.6750, 29.2816
1495411170.1368100643,1495411170.1390950680, -0.9802, -0.3955,  0.0625,-62.8510,-35.6750, 29.2816
1495411170.1391739845,1495411170.1415510178, -0.9802, -0.3955,  0.0625,-65.6281,-35.9497, 28.4119
1495411170.1417410374,1495411170.1440269947, -0.9802, -0.3955,  0.0625,-65.6281,-35.9497, 28.4119
1495411170.1441071033,1495411170.1463949680, -0.9802, -0.3955,  0.0784,-65.6281,-35.9497, 28.4119
1495411170.1464750767,1495411170.1487579346, -0.9946, -0.3884,  0.0784,-65.6281,-35.9497, 28.4119
1495411170.1488380432,1495411170.1512689590, -0.9946, -0.3884,  0.0784,-65.6281,-35.4309, 25.6042
1495411170.1513490677,1495411170.1537389755, -0.9946, -0.3884,  0.0784,-63.9954,-35.4309, 25.6042
1495411170.1538169384,1495411170.1562039852, -0.9946, -0.3884,  0.0784,-63.9954,-35.4309, 25.6042
1495411170.1562829018,1495411170.1586790085, -0.9946, -0.3884,  0.0784,-63.9954,-35.4309, 25.6042
1495411170.1587579250,1495411170.1611359119, -0.9946, -0.3884,  0.0784,-63.9954,-35.4309, 21.6980
1495411170.1612150669,1495411170.1635820866, -0.9946, -0.3884,  0.0784,-61.7981,-36.0107, 22.3083
1495411170.1636619568,1495411170.1660358906, -0.9946, -0.3884,  0.0784,-61.7981,-36.0107, 22.3083
1495411170.1661159992,1495411170.1684799194, -1.0930, -0.3752,  0.0720,-61.7981,-36.0107, 22.3083
1495411170.1685578823,1495411170.1708879471, -1.0930, -0.3752,  0.0720,-61.7981,-36.0107, 22.3083
1495411170.1709680557,1495411170.1732521057, -1.0930, -0.3752,  0.0720,-63.6139,-44.7388, 18.2343
1495411170.1733300686,1495411170.1756169796, -1.0930, -0.3752,  0.0720,-63.6139,-44.7388, 18.2343
1495411170.1756949425,1495411170.1779789925, -1.0930, -0.3752,  0.0720,-63.6139,-44.7388, 18.2343
1495411170.1780579090,1495411170.1805169582, -1.0930, -0.3752,  0.0720,-63.6139,-44.7388, 18.2343
1495411170.1805970669,1495411170.1830010414, -1.0930, -0.3752,  0.0720,-63.6139,-52.5970, 11.2915
1495411170.1830809116,1495411170.1854898930, -1.0930, -0.3752,  0.0720,-63.2019,-52.5970, 11.2915
1495411170.1855690479,1495411170.1879780293, -1.0264, -0.3579,  0.1052,-63.2019,-52.5970, 11.2915
1495411170.1880578995,1495411170.1905260086, -1.0264, -0.3579,  0.1052,-63.2019,-52.5970, 11.2915
1495411170.1906061172,1495411170.1928920746, -1.0264, -0.3579,  0.1052,-63.2019,-52.5970,  3.4790
1495411170.1929690838,1495411170.1954600811, -1.0264, -0.3579,  0.1052,-59.0820,-53.2227,  3.1738
1495411170.1955380440,1495411170.1979160309, -1.0264, -0.3579,  0.1052,-59.0820,-53.2227,  3.1738
1495411170.1979930401,1495411170.2004690170, -1.0264, -0.3579,  0.1052,-59.0820,-53.2227,  3.1738
1495411170.2005479336,1495411170.2029159069, -1.0264, -0.3579,  0.1052,-59.0820,-53.2227,  3.1738
1495411170.2029941082,1495411170.2053608894, -1.0264, -0.3579,  0.1052,-58.5022,-55.7251, -4.4861
1495411170.2054700851,1495411170.2078690529, -1.0710, -0.3794,  0.0764,-58.5022,-55.7251, -4.4861
1495411170.2079470158,1495411170.2103710175, -1.0710, -0.3794,  0.0764,-58.5022,-55.7251, -4.4861
1495411170.2104480267,1495411170.2128539085, -1.0710, -0.3794,  0.0764,-58.5022,-55.7251, -4.4861
1495411170.2129321098,1495411170.2153449059, -1.0710, -0.3794,  0.0764,-52.7802,-59.8907,-11.3373
1495411170.2154250145,1495411170.2178299427, -1.0710, -0.3794,  0.0764,-52.7802,-59.8907,-11.3373
1495411170.2179090977,1495411170.2203259468, -1.0710, -0.3794,  0.0764,-52.7802,-59.8907,-11.3373
1495411170.2204051018,1495411170.2228119373, -1.0710, -0.3794,  0.0764,-52.7802,-59.8907,-11.3373
1495411170.2228899002,1495411170.2252929211, -1.0710, -0.3794,  0.0764,-52.7802,-61.8896,-19.0735
1495411170.2253720760,1495411170.2277719975, -1.0610, -0.3796,  0.0657,-44.1132,-61.8896,-19.0735
1495411170.2278509140,1495411170.2302200794, -1.0610, -0.3796,  0.0657,-44.1132,-61.8896,-19.0735
1495411170.2302980423,1495411170.2325730324, -1.0610, -0.3796,  0.0657,-44.1132,-61.8896,-19.0735
1495411170.2326519489,1495411170.2349319458, -1.0610, -0.3796,  0.0657,-44.1132,-61.8896,-19.0735
1495411170.2350089550,1495411170.2372999191, -1.0610, -0.3796,  0.0657,-36.8805,-60.4706,-26.3519
1495411170.2373769283,1495411170.2396829128, -1.0610, -0.3796,  0.0657,-36.8805,-60.4706,-26.3519
1495411170.2397611141,1495411170.2420470715, -1.0610, -0.3796,  0.0657,-36.8805,-60.4706,-26.3519
1495411170.2421259880,1495411170.2444090843, -1.0610, -0.3796,  0.0657,-36.8805,-60.4706,-26.3519
1495411170.2445969582,1495411170.2468810081, -1.0610, -0.3171,  0.0786,-30.9753,-55.1453,-32.6385
1495411170.2469589710,1495411170.2493910789, -1.0364, -0.3689,  0.0786,-30.9753,-55.1453,-32.6385
1495411170.2494690418,1495411170.2517499924, -1.0364, -0.3689,  0.0786,-30.9753,-55.1453,-32.6385
1495411170.2518279552,1495411170.2541120052, -1.0364, -0.3689,  0.0786,-30.9753,-55.1453,-32.6385
1495411170.2541890144,1495411170.2564780712, -1.0364, -0.3689,  0.0786,-30.9753,-55.1453,-37.0178
1495411170.2565560341,1495411170.2588379383, -1.0364, -0.3689,  0.0786,-24.7345,-47.1497,-37.0178
1495411170.2589170933,1495411170.2614550591, -1.0364, -0.3689,  0.0786,-24.7345,-47.1497,-37.0178
1495411170.2615339756,1495411170.2638080120, -1.0364, -0.3689,  0.0786,-24.7345,-47.1497,-37.0178
1495411170.2638869286,1495411170.2661659718, -1.0364, -0.3689,  0.0786,-24.7345,-47.1497,-37.0178
1495411170.2662439346,1495411170.2685179710, -1.0317, -0.3333,  0.1118,-19.8975,-38.3911,-39.6881
1495411170.2685959339,1495411170.2709779739, -1.0317, -0.3333,  0.1118,-19.8975,-38.3911,-39.6881
1495411170.2710559368,1495411170.2733340263, -1.0317, -0.3333,  0.1118,-19.8975,-38.3911,-39.6881
1495411170.2734119892,1495411170.2768349648, -1.0317, -0.3333,  0.1118,-19.8975,-38.3911,-39.6881
1495411170.2769160271,1495411170.2791919708, -1.0317, -0.3333,  0.1118,-17.0593,-29.9988,-42.3584
1495411170.2793250084,1495411170.2816040516, -1.0317, -0.3333,  0.1118,-17.0593,-29.9988,-42.3584
1495411170.2816829681,1495411170.2839560509, -1.0317, -0.3333,  0.1118,-17.0593,-29.9988,-42.3584
1495411170.2840330601,1495411170.2863070965, -1.0317, -0.3333,  0.1118,-17.0593,-29.9988,-42.3584
1495411170.2863850594,1495411170.2886669636, -1.0398, -0.3113,  0.1260,-17.0593,-22.7814,-44.0979
1495411170.2887461185,1495411170.2910339832, -1.0398, -0.3113,  0.1260,-16.2506,-22.7814,-44.0979
1495411170.2911128998,1495411170.2933919430, -1.0398, -0.3113,  0.1260,-16.2506,-22.7814,-44.0979
1495411170.2934710979,1495411170.2957470417, -1.0398, -0.3113,  0.1260,-16.2506,-22.7814,-44.0979
1495411170.2958250046,1495411170.2981050014, -1.0398, -0.3113,  0.1260,-16.2506,-22.7814,-44.0979
1495411170.2981820107,1495411170.3004729748, -1.0398, -0.3113,  0.1260,-15.5334,-18.3563,-43.4570
1495411170.3005499840,1495411170.3028290272, -1.0398, -0.3113,  0.1260,-15.5334,-18.3563,-43.4570
1495411170.3029060364,1495411170.3051791191, -1.0398, -0.3113,  0.1260,-15.5334,-18.3563,-43.4570
1495411170.3052570820,1495411170.3075339794, -1.0398, -0.2974,  0.1206,-15.5334,-18.3563,-43.4570
1495411170.3076119423,1495411170.3099839687, -1.0093, -0.2974,  0.1206,-19.4397,-16.6016,-39.9933
1495411170.3100619316,1495411170.3123409748, -1.0093, -0.2974,  0.1206,-16.2659,-16.6016,-39.9933
1495411170.3124198914,1495411170.3146970272, -1.0093, -0.2974,  0.1206,-16.2659,-16.6016,-39.9933
1495411170.3147740364,1495411170.3170471191, -1.0093, -0.2974,  0.1206,-16.2659,-16.6016,-39.9933
1495411170.3171250820,1495411170.3195879459, -1.0093, -0.2974,  0.1206,-16.2659,-16.6016,-39.9933
1495411170.3196671009,1495411170.3219430447, -1.0093, -0.2974,  0.1206,-18.1732,-16.0522,-34.9731
1495411170.3220210075,1495411170.3242990971, -1.0093, -0.2974,  0.1206,-18.1732,-16.0522,-34.9731
1495411170.3243770599,1495411170.3266599178, -1.0093, -0.2974,  0.1206,-18.1732,-16.0522,-34.9731
1495411170.3267369270,1495411170.3290190697, -0.9639, -0.2888,  0.1230,-18.1732,-16.0522,-34.9731
1495411170.3290960789,1495411170.3314969540, -0.9639, -0.2888,  0.1230,-19.4244,-16.0522,-28.7170
1495411170.3315761089,1495411170.3338510990, -0.9639, -0.2888,  0.1230,-19.4244,-16.0522,-28.7170
1495411170.3339290619,1495411170.3362059593, -0.9639, -0.2888,  0.1230,-19.4244,-16.0522,-28.7170
1495411170.3362829685,1495411170.3385651112, -0.9639, -0.2888,  0.1230,-19.4244,-16.0522,-28.7170
1495411170.3386430740,1495411170.3409900665, -0.9639, -0.2888,  0.1230,-19.4244,-16.0522,-21.5454
1495411170.3410680294,1495411170.3433430195, -0.9639, -0.2888,  0.1230,-21.0419,-15.8997,-21.5454
1495411170.3435339928,1495411170.3458180428, -0.9639, -0.2888,  0.1230,-21.0419,-15.8997,-21.5454
1495411170.3458969593,1495411170.3481729031, -0.9753, -0.2671,  0.0288,-21.0419,-15.8997,-21.5454
1495411170.3482520580,1495411170.3505780697, -0.9753, -0.2671,  0.0288,-21.0419,-15.8997,-21.5454
1495411170.3506560326,1495411170.3529419899, -0.9753, -0.2671,  0.0288,  6.6681, -7.2632,-16.0065
1495411170.3530170918,1495411170.3552939892, -0.9753, -0.2671,  0.0288,  6.6681, -7.2632,-16.0065
1495411170.3553678989,1495411170.3576500416, -0.9753, -0.2671,  0.0288,  6.6681, -7.2632,-16.0065
1495411170.3577249050,1495411170.3600471020, -0.9753, -0.2671,  0.0288,  6.6681, -7.2632,-16.0065
1495411170.3601210117,1495411170.3625519276, -0.9753, -0.2671,  0.0288,  6.6681,  0.5493, -4.6082
1495411170.3626239300,1495411170.3649098873, -0.9753, -0.2671,  0.0288, 37.8571,  3.5095, -4.6082
1495411170.3649849892,1495411170.3672668934, -0.9753, -0.2825,  0.1150, 37.8571,  3.5095, -4.6082
1495411170.3673419952,1495411170.3697900772, -0.9502, -0.2825,  0.1150, 37.8571,  3.5095, -4.6082
1495411170.3698658943,1495411170.3721439838, -0.9502, -0.2825,  0.1150, 37.8571,  3.5095, -4.6082
1495411170.3722190857,1495411170.3744950294, -0.9502, -0.2825,  0.1150, 49.9725,  6.4697,  3.0518
1495411170.3745689392,1495411170.3778090477, -0.9502, -0.2825,  0.1150, 49.9725,  6.4697,  3.0518
1495411170.3778889179,1495411170.3802399635, -0.9502, -0.2825,  0.1150, 49.9725,  6.4697,  3.0518
1495411170.3803160191,1495411170.3825979233, -0.9502, -0.2825,  0.1150, 49.9725,  6.4697,  3.0518
1495411170.3826720715,1495411170.3849470615, -0.9502, -0.2825,  0.1150, 44.0674,  5.0354,  9.3536
1495411170.3850219250,1495411170.3872990608, -0.9502, -0.2825,  0.1892, 44.0674,  5.0354,  9.3536
1495411170.3873751163,1495411170.3896880150, -1.0010, -0.2825,  0.1892, 44.0674,  5.0354,  9.3536
1495411170.3897619247,1495411170.3920400143, -1.0010, -0.2825,  0.1892, 44.0674,  5.0354,  9.3536
1495411170.3921129704,1495411170.3943920135, -1.0010, -0.2825,  0.1892, 44.0674,  2.3346, 13.0463
1495411170.3944680691,1495411170.3967421055, -1.0010, -0.2825,  0.1892, 35.6750,  2.3346, 13.0463
1495411170.3968179226,1495411170.3990910053, -1.0010, -0.2825,  0.1892, 35.6750,  2.3346, 13.0463
1495411170.3991680145,1495411170.4014499187, -1.0010, -0.2825,  0.1892, 35.6750,  2.3346, 13.0463
1495411170.4015259743,1495411170.4038000107, -1.0010, -0.2825,  0.1892, 35.6750,  2.3346, 13.0463
1495411170.4038760662,1495411170.4061560631, -1.0010, -0.2825,  0.1892, 23.3765, -1.4648, 14.2517
1495411170.4062321186,1495411170.4085099697, -0.9990, -0.3020,  0.1782, 23.3765, -1.4648, 14.2517
1495411170.4085869789,1495411170.4108719826, -0.9990, -0.3020,  0.1782, 23.3765, -1.4648, 14.2517
1495411170.4109480381,1495411170.4132299423, -0.9990, -0.3020,  0.1782, 23.3765, -1.4648, 14.2517
1495411170.4133069515,1495411170.4155879021, -0.9990, -0.3020,  0.1782,  7.7515, -4.9591, 13.9618
1495411170.4156620502,1495411170.4179389477, -0.9990, -0.3020,  0.1782,  5.5847, -4.9591, 13.9618
1495411170.4180109501,1495411170.4203820229, -0.9990, -0.3020,  0.1782,  5.5847, -4.9591, 13.9618
1495411170.4204559326,1495411170.4227390289, -0.9990, -0.3020,  0.1782,  5.5847, -4.9591, 13.9618
1495411170.4228119850,1495411170.4250938892, -0.9990, -0.3020,  0.1782,  5.5847, -4.9591, 13.9618
1495411170.4251670837,1495411170.4274420738, -0.9990, -0.2969,  0.1453, -1.8311, -4.8676, 13.1531
1495411170.4275159836,1495411170.4299418926, -1.0088, -0.2969,  0.1453, -1.8311, -4.8676, 13.1531
1495411170.4300150871,1495411170.4322979450, -1.0088, -0.2969,  0.1453, -1.8311, -4.8676, 13.1531
1495411170.4323709011,1495411170.4346559048, -1.0088, -0.2969,  0.1453, -1.8311, -4.8676, 13.1531
1495411170.4347279072,1495411170.4370090961, -1.0088, -0.2969,  0.1453, -4.5624, -1.6327, 12.2375
1495411170.4370810986,1495411170.4393770695, -1.0088, -0.2969,  0.1453, -4.5624, -1.6327, 12.2375
1495411170.4394490719,1495411170.4418570995, -1.0088, -0.2969,  0.1453, -4.5624, -1.6327, 12.2375
1495411170.4419310093,1495411170.4443380833, -1.0088, -0.2969,  0.1453, -4.5624, -1.6327, 12.2375
1495411170.4445240498,1495411170.4469349384, -1.0088, -0.2969,  0.1453, -4.5624, -1.6327, 10.4218
1495411170.4470090866,1495411170.4494600296, -0.9905, -0.3152,  0.1819,-12.0087, -0.1526, 10.4218
1495411170.4495379925,1495411170.4519500732, -0.9905, -0.3152,  0.1819,-12.0087, -0.1526, 10.4218
1495411170.4520270824,1495411170.4544360638, -0.9905, -0.3152,  0.1819,-12.0087, -0.1526, 10.4218
1495411170.4545130730,1495411170.4569189548, -0.9905, -0.3152,  0.1819,-12.0087, -0.1526, 10.4218
1495411170.4569969177,1495411170.4594469070, -0.9905, -0.3152,  0.1819,-21.7896, -1.4038,  8.4076
1495411170.4595220089,1495411170.4619269371, -0.9905, -0.3152,  0.1819,-21.7896, -1.4038,  8.4076
1495411170.4620039463,1495411170.4644949436, -0.9905, -0.3152,  0.1819,-21.7896, -1.4038,  8.4076
1495411170.4645709991,1495411170.4668519497, -0.9905, -0.3152,  0.1819,-21.7896, -1.4038,  8.4076
1495411170.4669270515,1495411170.4693980217, -0.9758, -0.3123,  0.1396,-23.5138,  0.3662,  5.7220
1495411170.4694728851,1495411170.4718449116, -0.9758, -0.3123,  0.1396,-23.5138,  0.3662,  5.7220
1495411170.4719190598,1495411170.4742820263, -0.9758, -0.3123,  0.1396,-23.5138,  0.3662,  5.7220
1495411170.4743568897,1495411170.4778978825, -0.9758, -0.3123,  0.1396,-23.5138,  0.3662,  5.7220
1495411170.4779739380,1495411170.4803490639, -0.9758, -0.3123,  0.1396,-17.6086,  6.2561,  4.0131
1495411170.4804239273,1495411170.4827039242, -0.9758, -0.3123,  0.1396,-17.6086,  6.2561,  4.0131
1495411170.4827780724,1495411170.4850618839, -0.9758, -0.3123,  0.1396,-17.6086,  6.2561,  4.0131
1495411170.4851360321,1495411170.4874138832, -0.9758, -0.3123,  0.1641,-17.6086,  6.2561,  4.0131
1495411170.4874880314,1495411170.4898331165, -0.9753, -0.3091,  0.1641,-10.2539, 11.5051,  2.3499
1495411170.4899098873,1495411170.4921910763, -0.9753, -0.3091,  0.1641,-10.2539, 11.5051,  2.3499
1495411170.4922668934,1495411170.4945418835, -0.9753, -0.3091,  0.1641,-10.2539, 11.5051,  2.3499
1495411170.4946179390,1495411170.4968950748, -0.9753, -0.3091,  0.1641,-10.2539, 11.5051,  2.3499
1495411170.4969708920,1495411170.4992849827, -0.9753, -0.3091,  0.1641,-10.2539, 11.5051,  2.3499
1495411170.4993610382,1495411170.5016379356, -0.9753, -0.3091,  0.1641, -4.8218, 14.5721,  1.3733
1495411170.5017120838,1495411170.5039939880, -0.9753, -0.3091,  0.1641, -4.8218, 14.5721,  1.3733
1495411170.5040669441,1495411170.5063450336, -0.9753, -0.3091,  0.1641, -4.8218, 14.5721,  1.3733
1495411170.5064179897,1495411170.5086989403, -0.9622, -0.3040,  0.1887, -4.8218, 14.5721,  1.3733
1495411170.5087730885,1495411170.5110540390, -0.9622, -0.3040,  0.1887, -3.1128, 15.1978, -0.0458
1495411170.5111310482,1495411170.5134088993, -0.9622, -0.3040,  0.1887, -3.1128, 15.1978, -0.0458
1495411170.5134849548,1495411170.5157730579, -0.9622, -0.3040,  0.1887, -3.1128, 15.1978, -0.0458
1495411170.5158469677,1495411170.5181229115, -0.9622, -0.3040,  0.1887, -3.1128, 15.1978, -0.0458
1495411170.5181980133,1495411170.5205650330, -0.9622, -0.3040,  0.1887, -3.1128, 15.1978, -0.0458
1495411170.5206410885,1495411170.5229289532, -0.9622, -0.3040,  0.1887, -7.0496, 12.4054, -3.2501
1495411170.5230040550,1495411170.5252881050, -0.9622, -0.3040,  0.1887, -7.0496, 12.4054, -3.2501
1495411170.5253620148,1495411170.5276520252, -0.9622, -0.2954,  0.1938, -7.0496, 12.4054, -3.2501
1495411170.5277259350,1495411170.5301640034, -0.9700, -0.2954,  0.1938, -7.0496, 12.4054, -3.2501
1495411170.5302379131,1495411170.5325179100, -0.9700, -0.2954,  0.1938,-11.2152,  9.2010, -7.4158
1495411170.5325920582,1495411170.5348780155, -0.9700, -0.2954,  0.1938,-11.2152,  9.2010, -7.4158
1495411170.5349519253,1495411170.5372350216, -0.9700, -0.2954,  0.1938,-11.2152,  9.2010, -7.4158
1495411170.5373098850,1495411170.5396649837, -0.9700, -0.2954,  0.1938,-11.2152,  9.2010, -7.4158
1495411170.5397388935,1495411170.5421500206, -0.9700, -0.2954,  0.1938,-11.2152,  5.2948,-10.4370
1495411170.5422270298,1495411170.5446350574, -0.9700, -0.2954,  0.1938,-11.7493,  6.0730,-10.4370
1495411170.5447111130,1495411170.5471189022