timestamp_before,timestamp_after,accel_x,accel_y,accel_z,gyro_x,gyro_y,gryo_z
1495063132.0258870125,1495063132.0283079147, -0.9712,  0.2507, -0.7720,-22.6440,-14.8773,-22.0947
1495063132.0284020901,1495063132.0306839943, -0.8835,  0.2351, -0.7637,-22.6440,-14.8773,-22.0947
1495063132.0307629108,1495063132.0330440998, -0.8835,  0.2351, -0.7637,-22.6440,-14.8773,-22.0947
1495063132.0331220627,1495063132.0353980064, -0.8835,  0.2351, -0.7637,-22.6440,-14.8773,-22.0947
1495063132.0354759693,1495063132.0379259586, -0.8835,  0.2351, -0.7637,-23.3154,-14.0533,-20.6451
1495063132.0380051136,1495063132.0402939320, -0.8835,  0.2351, -0.7637,-23.3154,-14.0533,-20.6451
1495063132.0403718948,1495063132.0426509380, -0.8835,  0.2351, -0.7637,-23.3154,-14.0533,-20.6451
1495063132.0427279472,1495063132.0450139046, -0.8835,  0.2351, -0.7637,-23.3154,-14.0533,-20.6451
1495063132.0450909138,1495063132.0478920937, -0.8835,  0.2351, -0.7637,-22.7814,-12.6038,-17.6849
1495063132.0479729176,1495063132.0502519608, -0.8655,  0.2451, -0.7783,-22.7814,-12.6038,-17.6849
1495063132.0503299236,1495063132.0547020435, -0.8655,  0.2451, -0.7783,-22.7814,-12.6038,-17.6849
1495063132.0547890663,1495063132.0571119785, -0.8655,  0.2451, -0.7783,-22.7814, -8.6975,-14.7858
1495063132.0571899414,1495063132.0595839024, -0.8655,  0.2451, -0.7783,-21.6217,-11.2152,-14.7858
1495063132.0596621037,1495063132.0619471073, -0.8655,  0.2451, -0.7783,-21.6217,-11.2152,-14.7858
1495063132.0620241165,1495063132.0643100739, -0.8655,  0.2451, -0.7783,-21.6217,-11.2152,-14.7858
1495063132.0643858910,1495063132.0666749477, -0.8655,  0.2451, -0.7783,-21.6217,-11.2152,-14.7858
1495063132.0667510033,1495063132.0691080093, -0.8655,  0.2263, -0.8042,-20.2789,-10.2386,-12.9852
1495063132.0691869259,1495063132.0714740753, -0.8574,  0.2263, -0.8042,-20.2789,-10.2386,-12.9852
1495063132.0715510845,1495063132.0738348961, -0.8574,  0.2263, -0.8042,-20.2789,-10.2386,-12.9852
1495063132.0739119053,1495063132.0761909485, -0.8574,  0.2263, -0.8042,-20.2789,-10.2386,-12.9852
1495063132.0762679577,1495063132.0785660744, -0.8574,  0.2263, -0.8042,-16.3727, -9.1248,-11.4594
1495063132.0786430836,1495063132.0809190273, -0.8574,  0.2263, -0.8042,-17.4408, -9.1248,-11.4594
1495063132.0809960365,1495063132.0832829475, -0.8574,  0.2263, -0.8042,-17.4408, -9.1248,-11.4594
1495063132.0833609104,1495063132.0856521130, -0.8574,  0.2263, -0.8042,-17.4408, -9.1248,-11.4594
1495063132.0857288837,1495063132.0880200863, -0.8574,  0.2263, -0.8042,-17.4408, -9.1248,-11.4594
1495063132.0880970955,1495063132.0903849602, -0.8391,  0.1824, -0.8093,-15.8539, -7.5836,-10.7422
1495063132.0904610157,1495063132.0927460194, -0.8391,  0.1824, -0.8093,-15.8539, -7.5836,-10.7422
1495063132.0928230286,1495063132.0951049328, -0.8391,  0.1824, -0.8093,-15.8539, -7.5836,-10.7422
1495063132.0951800346,1495063132.0975480080, -0.8391,  0.1824, -0.8093,-15.8539, -7.5836,-10.7422
1495063132.0976250172,1495063132.0999128819, -0.8391,  0.1824, -0.8093,-14.0381, -6.1951,-10.3760
1495063132.0999898911,1495063132.1022779942, -0.8391,  0.1824, -0.8093,-14.0381, -6.1951,-10.3760
1495063132.1023550034,1495063132.1046459675, -0.8391,  0.1824, -0.8093,-14.0381, -6.1951,-10.3760
1495063132.1047220230,1495063132.1071369648, -0.8391,  0.1824, -0.8093,-14.0381, -6.1951,-10.3760
1495063132.1072139740,1495063132.1095108986, -0.8391,  0.1902, -0.8335,-14.0381, -6.1951,-10.0250
1495063132.1095869541,1495063132.1118741035, -0.8538,  0.1902, -0.8335,-11.7798, -5.0201,-10.0250
1495063132.1119511127,1495063132.1142361164, -0.8538,  0.1902, -0.8335,-11.7798, -5.0201,-10.0250
1495063132.1143119335,1495063132.1166009903, -0.8538,  0.1902, -0.8335,-11.7798, -5.0201,-10.0250
1495063132.1166770458,1495063132.1189670563, -0.8538,  0.1902, -0.8335,-11.7798, -5.0201,-10.0250
1495063132.1190431118,1495063132.1213219166, -0.8538,  0.1902, -0.8335,-10.1776, -3.2501, -8.6212
1495063132.1213970184,1495063132.1236860752, -0.8538,  0.1902, -0.8335,-10.1776, -3.2501, -8.6212
1495063132.1237599850,1495063132.1260380745, -0.8538,  0.1902, -0.8335,-10.1776, -3.2501, -8.6212
1495063132.1261119843,1495063132.1284809113, -0.8538,  0.1902, -0.8335,-10.1776, -3.2501, -8.6212
1495063132.1287019253,1495063132.1309850216, -0.8513,  0.2080, -0.8616,-10.1776, -3.2501, -7.5989
1495063132.1310589314,1495063132.1333389282, -0.8513,  0.2080, -0.8616, -9.6130, -0.8392, -7.5989
1495063132.1334099770,1495063132.1356940269, -0.8513,  0.2080, -0.8616, -9.6130, -0.8392, -7.5989
1495063132.1357650757,1495063132.1380889416, -0.8513,  0.2080, -0.8616, -9.6130, -0.8392, -7.5989
1495063132.1381609440,1495063132.1404459476, -0.8513,  0.2080, -0.8616, -9.6130, -0.8392, -7.5989
1495063132.1405179501,1495063132.1428000927, -0.8513,  0.2080, -0.8616,-10.2234,  1.1292, -5.8441
1495063132.1428749561,1495063132.1451580524, -0.8513,  0.2080, -0.8616,-10.2234,  1.1292, -5.8441
1495063132.1452310085,1495063132.1476919651, -0.8513,  0.2080, -0.8616,-10.2234,  1.1292, -5.8441
1495063132.1477680206,1495063132.1500520706, -0.8503,  0.2024, -0.8840,-10.2234,  1.1292, -5.8441
1495063132.1501250267,1495063132.1524059772, -0.8503,  0.2024, -0.8840,-10.2234,  3.0670, -4.5471
1495063132.1524798870,1495063132.1547589302, -0.8503,  0.2024, -0.8840, -9.6741,  3.0670, -4.5471
1495063132.1548299789,1495063132.1573209763, -0.8503,  0.2024, -0.8840, -9.6741,  3.0670, -4.5471
1495063132.1573939323,1495063132.1596748829, -0.8503,  0.2024, -0.8840, -9.6741,  3.0670, -4.5471
1495063132.1597449780,1495063132.1620249748, -0.8503,  0.2024, -0.8840, -9.6741,  3.0670, -4.5471
1495063132.1620969772,1495063132.1649639606, -0.8503,  0.2024, -0.8840, -8.8348,  5.4474, -3.2043
1495063132.1650369167,1495063132.1673660278, -0.8503,  0.2024, -0.8840, -8.8348,  5.4474, -3.2043
1495063132.1674370766,1495063132.1697158813, -0.8672,  0.1753, -0.8464, -8.8348,  5.4474, -3.2043
1495063132.1697859764,1495063132.1720659733, -0.8672,  0.1753, -0.8464, -8.8348,  5.4474, -3.2043
1495063132.1721370220,1495063132.1744201183, -0.8672,  0.1753, -0.8464, -7.2937,  7.2784, -3.1281
1495063132.1744890213,1495063132.1767649651, -0.8672,  0.1753, -0.8464, -7.2937,  7.2784, -3.1281
1495063132.1768350601,1495063132.1791119576, -0.8672,  0.1753, -0.8464, -7.2937,  7.2784, -3.1281
1495063132.1791830063,1495063132.1814620495, -0.8672,  0.1753, -0.8464, -7.2937,  7.2784, -3.1281
1495063132.1815319061,1495063132.1838099957, -0.8672,  0.1753, -0.8464, -7.2937, 11.1847, -2.8839
1495063132.1838850975,1495063132.1861679554, -0.8672,  0.1753, -0.8464, -6.8207,  8.3160, -2.8839
1495063132.1862399578,1495063132.1885440350, -0.8672,  0.1753, -0.8464, -6.8207,  8.3160, -2.8839
1495063132.1886150837,1495063132.1908969879, -0.8506,  0.1675, -0.8037, -6.8207,  8.3160, -2.8839
1495063132.1909680367,1495063132.1932480335, -0.8506,  0.1675, -0.8037, -6.8207,  8.3160, -2.8839
1495063132.1933190823,1495063132.1955978870, -0.8506,  0.1675, -0.8037, -6.8817,  9.6436, -2.4567
1495063132.1956689358,1495063132.1980528831, -0.8506,  0.1675, -0.8037, -6.8817,  9.6436, -2.4567
1495063132.1981248856,1495063132.2004070282, -0.8506,  0.1675, -0.8037, -6.8817,  9.6436, -2.4567
1495063132.2004790306,1495063132.2027630806, -0.8506,  0.1675, -0.8037, -6.8817,  9.6436, -2.4567
1495063132.2028338909,1495063132.2051150799, -0.8506,  0.1675, -0.8037, -6.8817,  9.6436, -2.5330
1495063132.2051858902,1495063132.2075200081, -0.8506,  0.1675, -0.8037, -6.8359, 10.0403, -2.5330
1495063132.2075951099,1495063132.2098751068, -0.8250,  0.0911, -0.8208, -6.8359, 10.0403, -2.5330
1495063132.2099509239,1495063132.2122340202, -0.8250,  0.0911, -0.8208, -6.8359, 10.0403, -2.5330
1495063132.2123088837,1495063132.2145879269, -0.8250,  0.0911, -0.8208, -6.8359, 10.0403, -2.5330
1495063132.2146639824,1495063132.2170939445, -0.8250,  0.0911, -0.8208, -5.2032, 10.4065, -3.5248
1495063132.2171700001,1495063132.2194480896, -0.8250,  0.0911, -0.8208, -5.2032, 10.4065, -3.5248
1495063132.2195229530,1495063132.2218000889, -0.8250,  0.0911, -0.8208, -5.2032, 10.4065, -3.5248
1495063132.2218749523,1495063132.2241590023, -0.8250,  0.0911, -0.8208, -5.2032, 10.4065, -3.5248
1495063132.2242341042,1495063132.2265141010, -0.8250,  0.0911, -0.8208, -1.2970, 11.2457, -4.9591
1495063132.2267100811,1495063132.2290399075, -0.8250,  0.0911, -0.8157, -3.7537, 11.2457, -4.9591
1495063132.2291159630,1495063132.2313981056, -0.8110,  0.0576, -0.8157, -3.7537, 11.2457, -4.9591
1495063132.2314729691,1495063132.2337489128, -0.8110,  0.0576, -0.8157, -3.7537, 11.2457, -4.9591
1495063132.2338230610,1495063132.2361030579, -0.8110,  0.0576, -0.8157, -3.7537, 11.2457, -4.9591
1495063132.2361779213,1495063132.2385070324, -0.8110,  0.0576, -0.8157, -0.7019, 12.3444, -5.7831
1495063132.2385818958,1495063132.2408580780, -0.8110,  0.0576, -0.8157, -0.7019, 12.3444, -5.7831
1495063132.2409329414,1495063132.2432129383, -0.8110,  0.0576, -0.8157, -0.7019, 12.3444, -5.7831
1495063132.2432880402,1495063132.2455658913, -0.8110,  0.0576, -0.8157, -0.7019, 12.3444, -5.7831
1495063132.2456409931,1495063132.2479588985, -0.8110,  0.0576, -0.8157,  1.7853, 12.1765, -6.1798
1495063132.2480330467,1495063132.2503149509, -0.8140,  0.0845, -0.8098,  1.7853, 12.1765, -6.1798
1495063132.2503890991,1495063132.2527821064, -0.8140,  0.0845, -0.8098,  1.7853, 12.1765, -6.1798
1495063132.2528579235,1495063132.2551429272, -0.8140,  0.0845, -0.8098,  1.7853, 12.1765, -6.1798
1495063132.2552180290,1495063132.2577300072, -0.8140,  0.0845, -0.8098,  1.7853, 12.1765, -6.5613
1495063132.2578060627,1495063132.2600829601, -0.8140,  0.0845, -0.8098,  3.6163, 13.4277, -6.5613
1495063132.2601580620,1495063132.2624490261, -0.8140,  0.0845, -0.8098,  3.6163, 13.4277, -6.5613
1495063132.2625238895,1495063132.2662849426, -0.8140,  0.0845, -0.8098,  3.6163, 13.4277, -6.5613
1495063132.2663629055,1495063132.2687020302, -0.8140,  0.0845, -0.8098,  7.5226, 13.8245, -6.7902
1495063132.2687790394,1495063132.2710590363, -0.8193,  0.1116, -0.7729,  4.1504, 13.8245, -6.7902
1495063132.2711329460,1495063132.2734169960, -0.8193,  0.1116, -0.7729,  4.1504, 13.8245, -6.7902
1495063132.2734909058,1495063132.2757709026, -0.8193,  0.1116, -0.7729,  4.1504, 13.8245, -6.7902
1495063132.2758450508,1495063132.2781779766, -0.8193,  0.1116, -0.7729,  4.1504, 13.8245, -6.7902
1495063132.2782530785,1495063132.2805330753, -0.8193,  0.1116, -0.7729,  3.6163, 13.0005, -7.6904
1495063132.2806069851,1495063132.2828869820, -0.8193,  0.1116, -0.7729,  3.6163, 13.0005, -7.6904
1495063132.2829620838,1495063132.2852399349, -0.8193,  0.1116, -0.7729,  3.6163, 13.0005, -7.6904
1495063132.2853140831,1495063132.2876040936, -0.8193,  0.1116, -0.7729,  3.6163, 13.0005, -7.6904
1495063132.2876789570,1495063132.2899549007, -0.8250,  0.1062, -0.7495,  3.6163, 11.5814, -8.0719
1495063132.2900309563,1495063132.2923190594, -0.8250,  0.1062, -0.7495,  1.8768, 11.5814, -8.0719
1495063132.2923960686,1495063132.2946770191, -0.8250,  0.1062, -0.7495,  1.8768, 11.5814, -8.0719
1495063132.2947518826,1495063132.2971160412, -0.8250,  0.1062, -0.7495,  1.8768, 11.5814, -8.0719
1495063132.2972021103,1495063132.2995009422, -0.8250,  0.1062, -0.7495,  1.8768, 11.5814, -8.0719
1495063132.2995769978,1495063132.3018589020, -0.8250,  0.1062, -0.7495,  0.5188, 10.1776, -8.9417
1495063132.3019349575,1495063132.3042140007, -0.8250,  0.1062, -0.7495,  0.5188, 10.1776, -8.9417
1495063132.3042900562,1495063132.3065741062, -0.8250,  0.1062, -0.7495,  0.5188, 10.1776, -8.9417
1495063132.3066489697,1495063132.3090219498, -0.8250,  0.1062, -0.7495,  0.5188, 10.1776, -8.9417
1495063132.3090989590,1495063132.3113820553, -0.8259,  0.0872, -0.7063, -1.1444,  7.4768, -9.5978
1495063132.3114540577,1495063132.3137319088, -0.8259,  0.0872, -0.7063, -1.1444,  7.4768, -9.5978
1495063132.3138029575,1495063132.3160829544, -0.8259,  0.0872, -0.7063, -1.1444,  7.4768, -9.5978
1495063132.3161540031,1495063132.3186039925, -0.8259,  0.0872, -0.7063, -1.1444,  7.4768, -9.5978
1495063132.3186769485,1495063132.3209540844, -0.8259,  0.0872, -0.7063, -1.1444,  7.4768,-10.1166
1495063132.3210279942,1495063132.3233079910, -0.8259,  0.0872, -0.7063, -3.4332,  5.6763,-10.1166
1495063132.3233819008,1495063132.3256630898, -0.8259,  0.0872, -0.7063, -3.4332,  5.6763,-10.1166
1495063132.3257379532,1495063132.3280129433, -0.8259,  0.0872, -0.7063, -3.4332,  5.6763,-10.1166
1495063132.3282051086,1495063132.3304989338, -0.8308,  0.0813, -0.7092, -3.4332,  5.6763,-10.1166
1495063132.3305730820,1495063132.3328509331, -0.8308,  0.0813, -0.7092, -5.2032,  3.8300,-10.6506
1495063132.3329260349,1495063132.3352010250, -0.8308,  0.0813, -0.7092, -5.2032,  3.8300,-10.6506
1495063132.3352749348,1495063132.3376588821, -0.8308,  0.0813, -0.7092, -5.2032,  3.8300,-10.6506
1495063132.3377339840,1495063132.3401439190, -0.8308,  0.0813, -0.7092, -5.2032,  3.8300,-10.6506
1495063132.3402190208,1495063132.3426229954, -0.8308,  0.0813, -0.7092, -5.2032,  1.0986,-11.0168
1495063132.3426980972,1495063132.3451108932, -0.8308,  0.0813, -0.7092, -7.0190,  1.0986,-11.0168
1495063132.3451850414,1495063132.3475809097, -0.8308,  0.0813, -0.7092, -7.0190,  1.0986,-11.0168
1495063132.3476550579,1495063132.3499429226, -0.8308,  0.0842, -0.6895, -7.0190,  1.0986,-11.0168
1495063132.3500180244,1495063132.3525209427, -0.8333,  0.0842, -0.6895, -7.0190,  1.0986,-11.0168
1495063132.3525969982,1495063132.3548800945, -0.8333,  0.0842, -0.6895, -8.0109, -1.1749,-11.5814
1495063132.3549540043,1495063132.3573300838, -0.8333,  0.0842, -0.6895, -8.0109, -1.1749,-11.5814
1495063132.3574059010,1495063132.3596858978, -0.8333,  0.0842, -0.6895, -8.0109, -1.1749,-11.5814
1495063132.3597619534,1495063132.3620378971, -0.8333,  0.0842, -0.6895, -8.0109, -1.1749,-11.5814
1495063132.3621120453,1495063132.3652100563, -0.8333,  0.0842, -0.6895, -9.6436, -3.5400,-12.6038
1495063132.3652880192,1495063132.3676269054, -0.8333,  0.0842, -0.6895, -9.6436, -3.5400,-12.6038
1495063132.3677020073,1495063132.3699851036, -0.8333,  0.0796, -0.6829, -9.6436, -3.5400,-12.6038
1495063132.3700599670,1495063132.3723380566, -0.8328,  0.0796, -0.6829, -9.6436, -3.5400,-12.6038
1495063132.3724141121,1495063132.3746910095, -0.8328,  0.0796, -0.6829,-11.6577, -6.0730,-13.7787
1495063132.3747680187,1495063132.3770570755, -0.8328,  0.0796, -0.6829,-11.6577, -6.0730,-13.7787
1495063132.3771340847,1495063132.3794100285, -0.8328,  0.0796, -0.6829,-11.6577, -6.0730,-13.7787
1495063132.3794870377,1495063132.3817679882, -0.8328,  0.0796, -0.6829,-11.6577, -6.0730,-13.7787
1495063132.3818440437,1495063132.3841240406, -0.8328,  0.0796, -0.6829,-11.6577, -6.0730,-13.7787
1495063132.3842010498,1495063132.3864719868, -0.8328,  0.0796, -0.6829,-13.8245, -8.8654,-14.3127
1495063132.3865499496,1495063132.3888959885, -0.8328,  0.0796, -0.6829,-13.8245, -8.8654,-14.3127
1495063132.3889729977,1495063132.3912520409, -0.8428,  0.0896, -0.6858,-13.8245, -8.8654,-14.3127
1495063132.3913290501,1495063132.3936090469, -0.8428,  0.0896, -0.6858,-13.8245, -8.8654,-14.3127
1495063132.3936870098,1495063132.3959710598, -0.8428,  0.0896, -0.6858,-15.5334,-11.7493,-14.6179
1495063132.3960490227,1495063132.3983368874, -0.8428,  0.0896, -0.6858,-15.5334,-11.7493,-14.6179
1495063132.3984150887,1495063132.4006960392, -0.8428,  0.0896, -0.6858,-15.5334,-11.7493,-14.6179
1495063132.4007740021,1495063132.4030539989, -0.8428,  0.0896, -0.6858,-15.5334,-11.7493,-14.6179
1495063132.4031319618,1495063132.4054100513, -0.8428,  0.0896, -0.6858,-15.5334,-11.7493,-14.6179
1495063132.4054880142,1495063132.4079039097, -0.8428,  0.0896, -0.6858,-16.4795,-14.5874,-15.0757
1495063132.4079830647,1495063132.4102709293, -0.8521,  0.1128, -0.6978,-16.4795,-14.5874,-15.0757
1495063132.4103500843,1495063132.4126300812, -0.8521,  0.1128, -0.6978,-16.4795,-14.5874,-15.0757
1495063132.4127089977,1495063132.4149990082, -0.8521,  0.1128, -0.6978,-16.4795,-14.5874,-15.0757
1495063132.4150769711,1495063132.4175119400, -0.8521,  0.1128, -0.6978,-17.3798,-16.4185,-15.2435
1495063132.4175920486,1495063132.4199969769, -0.8521,  0.1128, -0.6978,-17.3798,-16.4185,-15.2435
1495063132.4200758934,1495063132.4224801064, -0.8521,  0.1128, -0.6978,-17.3798,-16.4185,-15.2435
1495063132.4225590229,1495063132.4249680042, -0.8521,  0.1128, -0.6978,-17.3798,-16.4185,-15.2435
1495063132.4250469208,1495063132.4274470806, -0.8521,  0.1128, -0.6978,-17.3798,-17.9596,-14.8621
1495063132.4275259972,1495063132.4298069477, -0.8521,  0.1399, -0.7058,-17.8833,-17.9596,-14.8621
1495063132.4299969673,1495063132.4322791100, -0.8552,  0.1399, -0.7058,-17.8833,-17.9596,-14.8621
1495063132.4323580265,1495063132.4346408844, -0.8552,  0.1399, -0.7058,-17.8833,-17.9596,-14.8621
1495063132.4347190857,1495063132.4370319843, -0.8552,  0.1399, -0.7058,-17.8833,-17.9596,-14.8621
1495063132.4371099472,1495063132.4393908978, -0.8552,  0.1399, -0.7058,-18.1580,-19.2566,-14.9078
1495063132.4394700527,1495063132.4417500496, -0.8552,  0.1399, -0.7058,-18.1580,-19.2566,-14.9078
1495063132.4418280125,1495063132.4441061020, -0.8552,  0.1399, -0.7058,-18.1580,-19.2566,-14.9078
1495063132.4441840649,1495063132.4464650154, -0.8552,  0.1399, -0.7058,-18.1580,-19.2566,-14.9078
1495063132.4465429783,1495063132.4488909245, -0.8552,  0.1399, -0.7058,-18.1885,-19.7601,-14.8773
1495063132.4489688873,1495063132.4512450695, -0.8584,  0.1519, -0.7295,-18.1885,-19.7601,-14.8773
1495063132.4513220787,1495063132.4537689686, -0.8584,  0.1519, -0.7295,-18.1885,-19.7601,-14.8773
1495063132.4538469315,1495063132.4561250210, -0.8584,  0.1519, -0.7295,-18.1885,-19.7601,-14.8773
1495063132.4562039375,1495063132.4586699009, -0.8584,  0.1519, -0.7295,-18.1885,-19.7601,-14.8010
1495063132.4587481022,1495063132.4610269070, -0.8584,  0.1519, -0.7295,-18.1427,-20.4620,-14.8010
1495063132.4611060619,1495063132.4650011063, -0.8584,  0.1519, -0.7295,-18.1427,-20.4620,-14.8010
1495063132.4650850296,1495063132.4674119949, -0.8584,  0.1519, -0.7295,-18.1427,-20.4620,-14.8010
1495063132.4674909115,1495063132.4697721004, -0.8584,  0.1519, -0.7654,-18.0969,-21.6064,-14.2212
1495063132.4698500633,1495063132.4721350670, -0.8667,  0.1599, -0.7654,-18.0969,-21.6064,-14.2212
1495063132.4722120762,1495063132.4744899273, -0.8667,  0.1599, -0.7654,-18.0969,-21.6064,-14.2212
1495063132.4745669365,1495063132.4768431187, -0.8667,  0.1599, -0.7654,-18.0969,-21.6064,-14.2212
1495063132.4769210815,1495063132.4792830944, -0.8667,  0.1599, -0.7654,-18.0969,-21.6064,-14.2212
1495063132.4793601036,1495063132.4816429615, -0.8667,  0.1599, -0.7654,-18.4631,-20.9503,-13.4583
1495063132.4817209244,1495063132.4840030670, -0.8667,  0.1599, -0.7654,-18.4631,-20.9503,-13.4583
1495063132.4840800762,1495063132.4863569736, -0.8667,  0.1599, -0.7654,-18.4631,-20.9503,-13.4583
1495063132.4864349365,1495063132.4887299538, -0.8667,  0.1599, -0.7654,-18.4631,-20.9503,-13.4583
1495063132.4888069630,1495063132.4910900593, -0.8491,  0.1562, -0.8003,-17.8986,-20.9961,-12.5732
1495063132.4911680222,1495063132.4934470654, -0.8491,  0.1562, -0.8003,-17.8986,-20.9961,-12.5732
1495063132.4935259819,1495063132.4958078861, -0.8491,  0.1562, -0.8003,-17.8986,-20.9961,-12.5732
1495063132.4958870411,1495063132.4981739521, -0.8491,  0.1562, -0.8003,-17.8986,-20.9961,-12.5732
1495063132.4982540607,1495063132.5005331039, -0.8491,  0.1562, -0.8003,-17.8986,-20.9961,-12.5732
1495063132.5006120205,1495063132.5029010773, -0.8491,  0.1562, -0.8003,-17.8986,-19.6381,-11.8408
1495063132.5029790401,1495063132.5052590370, -0.8491,  0.1562, -0.8003,-17.8986,-19.6381,-11.8408
1495063132.5053369999,1495063132.5076949596, -0.8491,  0.1562, -0.8003,-17.8986,-19.6381,-11.8408
1495063132.5077729225,1495063132.5100610256, -0.8491,  0.1685, -0.8296,-17.8986,-19.6381,-11.8408
1495063132.5101389885,1495063132.5124249458, -0.8513,  0.1685, -0.8296,-18.1427,-18.9209,-10.3607
1495063132.5125029087,1495063132.5147840977, -0.8513,  0.1685, -0.8296,-18.1427,-18.9209,-10.3607
1495063132.5148620605,1495063132.5173580647, -0.8513,  0.1685, -0.8296,-18.1427,-18.9209,-10.3607
1495063132.5174379349,1495063132.5197238922, -0.8513,  0.1685, -0.8296,-18.1427,-18.9209,-10.3607
1495063132.5198020935,1495063132.5220870972, -0.8513,  0.1685, -0.8296,-18.1427,-18.9209, -8.8806
1495063132.5221641064,1495063132.5244479179, -0.8513,  0.1685, -0.8296,-16.7542,-16.9678, -8.8806
1495063132.5245249271,1495063132.5268108845, -0.8513,  0.1685, -0.8296,-16.7542,-16.9678, -8.8806
1495063132.5268869400,1495063132.5291759968, -0.8513,  0.1685, -0.8296,-16.7542,-16.9678, -8.8806
1495063132.5292539597,1495063132.5315339565, -0.8452,  0.1743, -0.8525,-16.7542,-16.9678, -8.8806
1495063132.5317230225,1495063132.5340080261, -0.8452,  0.1743, -0.8525,-15.2283,-14.5416, -8.1787
1495063132.5340840816,1495063132.5363690853, -0.8452,  0.1743, -0.8525,-15.2283,-14.5416, -8.1787
1495063132.5364439487,1495063132.5387299061, -0.8452,  0.1743, -0.8525,-15.2283,-14.5416, -8.1787
1495063132.5388059616,1495063132.5410909653, -0.8452,  0.1743, -0.8525,-15.2283,-14.5416, -8.1787
1495063132.5411660671,1495063132.5434489250, -0.8452,  0.1743, -0.8525,-15.2283,-12.6190, -7.2021
1495063132.5435240269,1495063132.5458059311, -0.8452,  0.1743, -0.8525,-13.1836,-12.6190, -7.2021
1495063132.5458810329,1495063132.5481739044, -0.8452,  0.1743, -0.8525,-13.1836,-12.6190, -7.2021
1495063132.5482499599,1495063132.5505280495, -0.8452,  0.1858, -0.8611,-13.1836,-12.6190, -7.2021
1495063132.5506041050,1495063132.5528891087, -0.8613,  0.1858, -0.8611,-13.1836,-12.6190, -7.2021
1495063132.5529661179,1495063132.5552499294, -0.8613,  0.1858, -0.8611,-11.0931,-10.0098, -6.1340
1495063132.5553259850,1495063132.5579130650, -0.8613,  0.1858, -0.8611,-11.0931,-10.0098, -6.1340
1495063132.5579910278,1495063132.5603640079, -0.8613,  0.1858, -0.8611,-11.0931,-10.0098, -6.1340
1495063132.5604410172,1495063132.5638360977, -0.8613,  0.1858, -0.8611,-11.0931,-10.0098, -6.1340
1495063132.5639159679,1495063132.5661940575, -0.8613,  0.1858, -0.8611, -8.7738, -7.4005, -5.4779
1495063132.5662660599,1495063132.5686380863, -0.8613,  0.1858, -0.8611, -8.7738, -7.4005, -5.4779
1495063132.5687100887,1495063132.5709888935, -0.8647,  0.1909, -0.8535, -8.7738, -7.4005, -5.4779
1495063132.5710589886,1495063132.5733389854, -0.8647,  0.1909, -0.8535, -8.7738, -7.4005, -5.4779
1495063132.5734090805,1495063132.5756900311, -0.8647,  0.1909, -0.8535, -6.9275, -5.5542, -4.4250
1495063132.5757610798,1495063132.5789589882, -0.8647,  0.1909, -0.8535, -6.9275, -5.5542, -4.4250
1495063132.5790309906,1495063132.5813150406, -0.8647,  0.1909, -0.8535, -6.9275, -5.5542, -4.4250
1495063132.5813839436,1495063132.5836620331, -0.8647,  0.1909, -0.8535, -6.9275, -5.5542, -4.4250
1495063132.5837318897,1495063132.5860099792, -0.8647,  0.1909, -0.8535, -6.9275, -2.6703, -2.7924
1495063132.5860800743,1495063132.5883679390, -0.8647,  0.1909, -0.8535, -5.5695, -2.6703, -2.7924
1495063132.5884380341,1495063132.5907158852, -0.8474,  0.1833, -0.8418, -5.5695, -2.6703, -2.7924
1495063132.5907859802,1495063132.5930690765, -0.8474,  0.1833, -0.8418, -5.5695, -2.6703, -2.7924
1495063132.5931389332,1495063132.5954198837, -0.8474,  0.1833, -0.8418, -5.5695, -2.6703, -2.7924
1495063132.5954890251,1495063132.5978078842, -0.8474,  0.1833, -0.8418, -4.4861,  0.9308, -1.8158
1495063132.5978789330,1495063132.6001539230, -0.8474,  0.1833, -0.8418, -4.4861,  0.9308, -1.8158
1495063132.6002249718,1495063132.6025021076, -0.8474,  0.1833, -0.8418, -4.4861,  0.9308, -1.8158
1495063132.6025729179,1495063132.6048550606, -0.8474,  0.1833, -0.8418, -4.4861,  0.9308, -1.8158
1495063132.6049261093,1495063132.6072130203, -0.8474,  0.1833, -0.8418, -3.4332,  3.6011, -1.2054
1495063132.6072831154,1495063132.6095600128, -0.8474,  0.1833, -0.8418, -3.4332,  3.6011, -1.2054
1495063132.6096289158,1495063132.6119070053, -0.8545,  0.1650, -0.8049, -3.4332,  3.6011, -1.2054
1495063132.6119780540,1495063132.6142559052, -0.8545,  0.1650, -0.8049, -3.4332,  3.6011, -1.2054
1495063132.6143260002,1495063132.6166090965, -0.8545,  0.1650, -0.8049, -3.4332,  3.6011, -1.2054
1495063132.6166779995,1495063132.6189610958, -0.8545,  0.1650, -0.8049, -2.5482,  5.9204, -0.6409
1495063132.6190319061,1495063132.6213090420, -0.8545,  0.1650, -0.8049, -2.5482,  5.9204, -0.6409
1495063132.6213800907,1495063132.6236660480, -0.8545,  0.1650, -0.8049, -2.5482,  5.9204, -0.6409
1495063132.6237370968,1495063132.6260159016, -0.8545,  0.1650, -0.8049, -2.5482,  5.9204, -0.6409
1495063132.6260859966,1495063132.6285309792, -0.8545,  0.1650, -0.8049, -1.4191,  8.2397, -0.4883
1495063132.6286029816,1495063132.6308879852, -0.8513,  0.1123, -0.8083, -1.4191,  8.2397, -0.4883
1495063132.6310639381,1495063132.6333479881, -0.8513,  0.1123, -0.8083, -1.4191,  8.2397, -0.4883
1495063132.6334209442,1495063132.6357040405, -0.8513,  0.1123, -0.8083, -1.4191,  8.2397, -0.4883
1495063132.6357769966,1495063132.6382548809, -0.8513,  0.1123, -0.8083, -1.4191,  8.2397, -0.2136
1495063132.6383280754,1495063132.6406030655, -0.8513,  0.1123, -0.8083,  0.9308, 10.2234, -0.2136
1495063132.6406788826,1495063132.6429591179, -0.8513,  0.1123, -0.8083,  0.9308, 10.2234, -0.2136
1495063132.6430339813,1495063132.6453130245, -0.8513,  0.1123, -0.8083,  0.9308, 10.2234, -0.2136
1495063132.6453878880,1495063132.6477079391, -0.8513,  0.1123, -0.8083,  0.9308, 10.2234, -0.2136
1495063132.6477830410,1495063132.6500689983, -0.8513,  0.1123, -0.7791,  2.7924, 11.8103, -0.2136
1495063132.6501450539,1495063132.6524279118, -0.8469,  0.1060, -0.7791,  2.7924, 11.8103, -0.2136
1495063132.6525039673,1495063132.6547958851, -0.8469,  0.1060, -0.7791,  2.7924, 11.8103, -0.2136
1495063132.6548719406,1495063132.6572000980, -0.8469,  0.1060, -0.7791,  2.7924, 11.8103, -0.2136
1495063132.6572759151,1495063132.6595590115, -0.8469,  0.1060, -0.7791,  2.7924, 11.8103,  0.3052
1495063132.6596350670,1495063132.6619219780, -0.8469,  0.1060, -0.7791,  5.4626, 13.4125,  0.3052
1495063132.6619970798,1495063132.6642770767, -0.8469,  0.1060, -0.7791,  5.4626, 13.4125,  0.3052
1495063132.6643519402,1495063132.6666290760, -0.8469,  0.1060, -0.7791,  5.4626, 13.4125,  0.3052
1495063132.6667039394,1495063132.6689939499, -0.8469,  0.1060, -0.7791,  5.4626, 13.4125,  0.3052
1495063132.6690700054,1495063132.6713430882, -0.8560,  0.1096, -0.7400,  6.4545, 13.9465,  0.5646
1495063132.6714179516,1495063132.6736979485, -0.8560,  0.1096, -0.7400,  6.4545, 13.9465,  0.5646
1495063132.6737730503,1495063132.6760520935, -0.8560,  0.1096, -0.7400,  6.4545, 13.9465,  0.5646
1495063132.6761279106,1495063132.6785149574, -0.8560,  0.1096, -0.7400,  6.4545, 13.9465,  0.5646
1495063132.6785910130,1495063132.6808829308, -0.8560,  0.1096, -0.7400,  6.4545, 14.0991,  0.7019
1495063132.6809589863,1495063132.6832420826, -0.8560,  0.1096, -0.7400,  5.6458, 14.0991,  0.7019
1495063132.6833178997,1495063132.6856000423, -0.8560,  0.1096, -0.7400,  5.6458, 14.0991,  0.7019
1495063132.6856749058,1495063132.6880850792, -0.8560,  0.1096, -0.7400,  5.6458, 14.0991,  0.7019
1495063132.6881608963,1495063132.6905341148, -0.8560,  0.1096, -0.7227,  5.6458, 14.0991,  0.7019
1495063132.6906089783,1495063132.6931190491, -0.8552,  0.0886, -0.7227,  5.1117, 14.2059,  1.1749
1495063132.6932029724,1495063132.6956059933, -0.8552,  0.0886, -0.7227,  5.1117, 14.2059,  1.1749
1495063132.6956830025,1495063132.6984789371, -0.8552,  0.0886, -0.7227,  5.1117, 14.2059,  1.1749
1495063132.6985630989,1495063132.7011249065, -0.8552,  0.0886, -0.7227,  5.1117, 14.2059,  1.1749
1495063132.7012050152,1495063132.7034819126, -0.8552,  0.0886, -0.7227,  5.3864, 13.9618,  1.2512
1495063132.7035560608,1495063132.7058389187, -0.8552,  0.0886, -0.7227,  5.3864, 13.9618,  1.2512
1495063132.7059130669,1495063132.7082829475, -0.8552,  0.0886, -0.7227,  5.3864, 13.9618,  1.2512
1495063132.7083580494,1495063132.7106370926, -0.8552,  0.0574, -0.6809,  5.3864, 13.9618,  1.2512
1495063132.7107119560,1495063132.7129929066, -0.8518,  0.0574, -0.6809,  5.0659, 13.3514,  0.4425
1495063132.7130680084,1495063132.7153460979, -0.8518,  0.0574, -0.6809,  5.0659, 13.3514,  0.4425
1495063132.7154209614,1495063132.7177519798, -0.8518,  0.0574, -0.6809,  5.0659, 13.3514,  0.4425
1495063132.7178270817,1495063132.7201108932, -0.8518,  0.0574, -0.6809,  5.0659, 13.3514,  0.4425
1495063132.7201859951,1495063132.7224659920, -0.8518,  0.0574, -0.6809,  5.0659, 13.3514, -3.4637
1495063132.7225410938,1495063132.7248179913, -0.8518,  0.0574, -0.6809,  3.5400, 12.1918, -0.3204
1495063132.7248930931,1495063132.7272069454, -0.8518,  0.0574, -0.6809,  3.5400, 12.1918, -0.3204
1495063132.7272820473,1495063132.7295620441, -0.8518,  0.0574, -0.6809,  3.5400, 12.1918, -0.3204
1495063132.7296359539,1495063132.7319118977, -0.8667,  0.0444, -0.6509,  3.5400, 12.1918, -0.3204
1495063132.7321009636,1495063132.7343809605, -0.8667,  0.0444, -0.6509,  0.7782, 10.5896, -1.6022
1495063132.7344560623,1495063132.7367389202, -0.8667,  0.0444, -0.6509,  0.7782, 10.5896, -1.6022
1495063132.7368140221,1495063132.7391159534, -0.8667,  0.0444, -0.6509,  0.7782, 10.5896, -1.6022
1495063132.7391910553,1495063132.7414669991, -0.8667,  0.0444, -0.6509,  0.7782, 10.5896, -1.6022
1495063132.7415421009,1495063132.7438290119, -0.8667,  0.0444, -0.6509,  0.7782, 10.5896, -2.4414
1495063132.7439041138,1495063132.7461829185, -0.8667,  0.0444, -0.6509, -1.1444,  7.7209, -2.4414
1495063132.7462530136,1495063132.7487180233, -0.8667,  0.0444, -0.6509, -1.1444,  7.7209, -2.4414
1495063132.7487890720,1495063132.7510650158, -0.9292,  0.0461, -0.6648, -1.1444,  7.7209, -2.4414
1495063132.7511351109,1495063132.7534151077, -0.8772,  0.0461, -0.6648, -1.1444,  7.7209, -2.4414
1495063132.7534859180,1495063132.7557659149, -0.8772,  0.0461, -0.6648, -3.4943,  5.4169, -2.6398
1495063132.7558360100,1495063132.7582769394, -0.8772,  0.0461, -0.6648, -3.4943,  5.4169, -2.6398
1495063132.7583479881,1495063132.7606260777, -0.8772,  0.0461, -0.6648, -3.4943,  5.4169, -2.6398
1495063132.7606959343,1495063132.7629768848, -0.8772,  0.0461, -0.6648, -3.4943,  5.4169, -2.6398
1495063132.7630469799,1495063132.7653250694, -0.8772,  0.0461, -0.6648, -3.4943,  1.5106, -3.1891
1495063132.7653949261,1495063132.7677230835, -0.8772,  0.0461, -0.6648, -5.5542,  3.7384, -3.1891
1495063132.7677938938,1495063132.7700769901, -0.8772,  0.0461, -0.7273, -5.5542,  3.7384, -3.1891
1495063132.7701480389,1495063132.7724289894, -0.8867,  0.0208, -0.6987, -5.5542,  3.7384, -3.1891
1495063132.7725009918,1495063132.7747800350, -0.8867,  0.0208, -0.6987, -5.5542,  3.7384, -3.1891
1495063132.7748510838,1495063132.7772319317, -0.8867,  0.0208, -0.6987, -5.6915,  2.2278, -4.3640
1495063132.7773039341,1495063132.7795829773, -0.8867,  0.0208, -0.6987, -5.6915,  2.2278, -4.3640
1495063132.7796540260,1495063132.7819359303, -0.8867,  0.0208, -0.6987, -5.6915,  2.2278, -4.3640
1495063132.7820069790,1495063132.7844440937, -0.8867,  0.0208, -0.6987, -5.6915,  2.2278, -4.3640
1495063132.7845160961,1495063132.7867929935, -0.8867,  0.0208, -0.6987, -5.6915,  0.6256, -4.9286
1495063132.7868630886,1495063132.7892420292, -0.8867,  0.0208, -0.6987, -5.4626,  0.6256, -4.9286
1495063132.7893140316,1495063132.7915918827, -0.8704,  0.0242, -0.6938, -5.4626,  0.6256, -4.9286
1495063132.7916629314,1495063132.7947790623, -0.8704,  0.0242, -0.6938, -5.4626,  0.6256, -4.9286
1495063132.7948529720,1495063132.7971820831, -0.8704,  0.0242, -0.6938, -5.4626, -0.5035, -5.6610
1495063132.7972540855,1495063132.7995300293, -0.8704,  0.0242, -0.6938, -6.2714, -0.5035, -5.6610
1495063132.7996020317,1495063132.8018751144, -0.8704,  0.0242, -0.6938, -6.2714, -0.5035, -5.6610
1495063132.8019459248,1495063132.8042240143, -0.8704,  0.0242, -0.6938, -6.2714, -0.5035, -5.6610
1495063132.8042950630,1495063132.8065769672, -0.8704,  0.0242, -0.6938, -6.2714, -0.5035, -5.6610
1495063132.8066480160,1495063132.8089339733, -0.8704,  0.0242, -0.6938, -7.7972, -2.1362, -6.3324
1495063132.8090040684,1495063132.8112850189, -0.8596,  0.0403, -0.7100, -7.7972, -2.1362, -6.3324
1495063132.8113551140,1495063132.8136351109, -0.8596,  0.0403, -0.7100, -7.7972, -2.1362, -6.3324
1495063132.8137049675,1495063132.8159809113, -0.8596,  0.0403, -0.7100, -7.7972, -2.1362, -6.3324
1495063132.8160510063,1495063132.8183701038, -0.8596,  0.0403, -0.7100, -7.7972, -3.4332, -7.0038
1495063132.8184409142,1495063132.8207139969, -0.8596,  0.0403, -0.7100, -9.9640, -3.4332, -7.0038
1495063132.8207850456,1495063132.8230659962, -0.8596,  0.0403, -0.7100, -9.9640, -3.4332, -7.0038
1495063132.8231370449,1495063132.8254199028, -0.8596,  0.0403, -0.7100, -9.9640, -3.4332, -7.0038
1495063132.8254909515,1495063132.8277740479, -0.8596,  0.0403, -0.7100, -9.9640, -3.4332, -7.0038
1495063132.8278460503,1495063132.8301260471, -0.8596,  0.0403, -0.7100,-11.9781, -4.3030, -7.7362
1495063132.8302009106,1495063132.8324820995, -0.8472,  0.0452, -0.7310,-11.9781, -4.3030, -7.7362
1495063132.8326709270,1495063132.8349521160, -0.8472,  0.0452, -0.7310,-11.9781, -4.3030, -7.7362
1495063132.8350269794,1495063132.8375101089, -0.8472,  0.0452, -0.7310,-11.9781, -4.3030, -7.7362
1495063132.8375859261,1495063132.8398640156, -0.8472,  0.0452, -0.7310,-12.5122, -5.7220, -8.6060
1495063132.8399400711,1495063132.8422160149, -0.8472,  0.0452, -0.7310,-12.5122, -5.7220, -8.6060
1495063132.8422920704,1495063132.8445711136, -0.8472,  0.0452, -0.7310,-12.5122, -5.7220, -8.6060
1495063132.8446459770,1495063132.8470749855, -0.8472,  0.0452, -0.7310,-12.5122, -5.7220, -8.6060
1495063132.8471539021,1495063132.8494360447, -0.8472,  0.0452, -0.7310,-12.5122, -5.7220, -8.6060
1495063132.8495109081,1495063132.8517880440, -0.8516,  0.0669, -0.7261,-13.3667, -6.3782, -9.8419
1495063132.8518629074,1495063132.8541390896, -0.8516,  0.0669, -0.7261,-13.3667, -6.3782, -9.8419
1495063132.8542129993,1495063132.8564929962, -0.8516,  0.0669, -0.7261,-13.3667, -6.3782, -9.8419
1495063132.8565680981,1495063132.8589260578, -0.8516,  0.0669, -0.7261,-13.3667, -6.3782, -9.8419
1495063132.8590009212,1495063132.8612740040, -0.8516,  0.0669, -0.7261,-14.0991, -7.1716,-11.0016
1495063132.8613519669,1495063132.8636341095, -0.8516,  0.0669, -0.7261,-14.0991, -7.1716,-11.0016
1495063132.8637111187,1495063132.8659920692, -0.8516,  0.0669, -0.7261,-14.0991, -7.1716,-11.0016
1495063132.8660678864,1495063132.8683590889, -0.8516,  0.0669, -0.7261,-14.0991, -7.1716,-11.0016
1495063132.8684360981,1495063132.8707160950, -0.8516,  0.0669, -0.7400,-14.0991, -7.1716,-11.7340
1495063132.8707919121,1495063132.8730731010, -0.8872,  0.1138, -0.7400,-15.5945, -9.0179,-11.7340
1495063132.8731510639,1495063132.8754339218, -0.8872,  0.1138, -0.7400,-15.5945, -9.0179,-11.7340
1495063132.8755109310,1495063132.8777980804, -0.8872,  0.1138, -0.7400,-15.5945, -9.0179,-11.7340
1495063132.8778760433,1495063132.8801569939, -0.8872,  0.1138, -0.7400,-15.5945, -9.0179,-11.7340
1495063132.8802340031,1495063132.8825170994, -0.8872,  0.1138, -0.7400,-17.6239,-10.1776,-12.3138
1495063132.8825960159,1495063132.8849720955, -0.8872,  0.1138, -0.7400,-17.6239,-10.1776,-12.3138
1495063132.8850519657,1495063132.8875091076, -0.8872,  0.1138, -0.7400,-17.6239,-10.1776,-12.3138
1495063132.8875880241,1495063132.8898720741, -0.8872,  0.1138, -0.7400,-17.6239,-10.1776,-12.3138
1495063132.8899509907,1495063132.8922278881, -0.8621,  0.1284, -0.7957,-17.6239,-10.1776,-13.3667
1495063132.8923060894,1495063132.8949429989, -0.8621,  0.1284, -0.7957,-19.1650,-11.1389,-13.3667
1495063132.8950240612,1495063132.8973860741, -0.8621,  0.1284, -0.7957,-19.1650,-11.1389,-13.3667
1495063132.8974640369,1495063132.8997380733, -0.8621,  0.1284, -0.7957,-19.1650,-11.1389,-13.3667
1495063132.8998150826,1495063132.9020938873, -0.8621,  0.1284, -0.7957,-19.1650,-11.1389,-13.3667
1495063132.9021708965,1495063132.9044489861, -0.8621,  0.1284, -0.7957,-19.0277,-11.1694,-13.5040
1495063132.9045269489,1495063132.9068090916, -0.8621,  0.1284, -0.7957,-19.0277,-11.1694,-13.5040
1495063132.9068861008,1495063132.9091660976, -0.8621,  0.1284, -0.7957,-19.0277,-11.1694,-13.5040
1495063132.9092440605,1495063132.9115231037, -0.8625,  0.1467, -0.8271,-19.0277,-11.1694,-13.5040
1495063132.9116001129,1495063132.9138829708, -0.8625,  0.1467, -0.8271,-18.4021,-10.2386,-13.4888
1495063132.9139599800,1495063132.9162349701, -0.8625,  0.1467, -0.8271,-18.4021,-10.2386,-13.4888
1495063132.9163129330,1495063132.9185960293, -0.8625,  0.1467, -0.8271,-18.4021,-10.2386,-13.4888
1495063132.9186739922,1495063132.9209539890, -0.8625,  0.1467, -0.8271,-18.4021,-10.2386,-13.4888
1495063132.9210309982,1495063132.9233069420, -0.8625,  0.1467, -0.8271,-18.4021,-10.2386,-13.4888
1495063132.9233849049,1495063132.9256699085, -0.8625,  0.1467, -0.8271,-16.9373, -9.3842,-13.3209
1495063132.9257459641,1495063132.9280290604, -0.8625,  0.1467, -0.8271,-16.9373, -9.3842,-13.3209
1495063132.9281070232,1495063132.9303820133, -0.8625,  0.1467, -0.8271,-16.9373, -9.3842,-13.3209
1495063132.9304580688,1495063132.9327421188, -0.8479,  0.1697, -0.8093,-16.9373, -9.3842,-13.3209
1495063132.9329280853,1495063132.9352059364, -0.8479,  0.1697, -0.8093,-15.5792, -8.9874,-13.2446
1495063132.9352819920,1495063132.9377059937, -0.8479,  0.1697, -0.8093,-15.5792, -8.9874,-13.2446
1495063132.9377830029,1495063132.9400720596, -0.8479,  0.1697, -0.8093,-15.5792, -8.9874,-13.2446
1495063132.9401490688,1495063132.9424281120, -0.8479,  0.1697, -0.8093,-15.5792, -8.9874,-13.2446
1495063132.9425039291,1495063132.9447870255, -0.8479,  0.1697, -0.8093,-15.5792, -8.9874,-12.7716
1495063132.9448630810,1495063132.9472920895, -0.8479,  0.1697, -0.8093,-15.1672, -7.5684,-12.7716
1495063132.9473679066,1495063132.9497749805, -0.8479,  0.1697, -0.8093,-15.1672, -7.5684,-12.7716
1495063132.9498510361,1495063132.9522640705, -0.8403,  0.1602, -0.8184,-15.1672, -7.5684,-12.7716
1495063132.9523410797,1495063132.9547460079, -0.8403,  0.1602, -0.8184,-15.1672, -7.5684,-12.7716
1495063132.9548220634,1495063132.9572451115, -0.8403,  0.1602, -0.8184,-13.6566, -6.2256,-12.3901
1495063132.9573209286,1495063132.9597361088, -0.8403,  0.1602, -0.8184,-13.6566, -6.2256,-12.3901
1495063132.9598119259,1495063132.9622139931, -0.8403,  0.1602, -0.8184,-13.6566, -6.2256,-12.3901
1495063132.9622900486,1495063132.9647030830, -0.8403,  0.1602, -0.8184,-13.6566, -6.2256,-12.3901
1495063132.9647800922,1495063132.9671909809, -0.8403,  0.1602, -0.8184,-12.1002, -5.1727,-12.1307
1495063132.9672670364,1495063132.9695448875, -0.8403,  0.1602, -0.8184,-12.1002, -5.1727,-12.1307
1495063132.9696199894,1495063132.9719069004, -0.8372,  0.1797, -0.8240,-12.1002, -5.1727,-12.1307
1495063132.9719829559,1495063132.9742660522, -0.8372,  0.1797, -0.8240,-12.1002, -5.1727,-12.1307
1495063132.9743409157,1495063132.9766249657, -0.8372,  0.1797, -0.8240,-12.1002, -5.1727,-11.5204
1495063132.9767010212,1495063132.9789960384, -0.8372,  0.1797, -0.8240,-11.3373, -3.6011,-11.5204
1495063132.9790720940,1495063132.9813530445, -0.8372,  0.1797, -0.8240,-11.3373, -3.6011,-11.5204
1495063132.9814291000,1495063132.9837110043, -0.8372,  0.1797, -0.8240,-11.3373, -3.6011,-11.5204
1495063132.9837870598,1495063132.9860670567, -0.8372,  0.1797, -0.8240,-11.3373, -3.6011,-11.5204
1495063132.9861431122,1495063132.9884269238, -0.8372,  0.1797, -0.8240, -9.2316, -2.7161,-10.7574
1495063132.9885020256,1495063132.9907801151, -0.8372,  0.1797, -0.7615, -9.2316, -2.7161,-10.7574
1495063132.9908540249,1495063132.9931309223, -0.8416,  0.1880, -0.8115, -9.2316, -2.7161,-10.7574
1495063132.9932050705,1495063132.9954819679, -0.8416,  0.1880, -0.8115, -9.2316, -2.7161,-10.7574
1495063132.9955561161,1495063132.9978530407, -0.8416,  0.1880, -0.8115, -9.2316, -2.7161, -9.7046
1495063132.9979250431,1495063133.0002069473, -0.8416,  0.1880, -0.8115, -8.4534, -2.3499, -9.7046
1495063133.0002789497,1495063133.0025629997, -0.8416,  0.1880, -0.8115, -8.4534, -2.3499, -9.7046
1495063133.0026330948,1495063133.0049769878, -0.8416,  0.1880, -0.8115, -8.4534, -2.3499, -9.7046
1495063133.0050489902,1495063133.0073740482, -0.8416,  0.1880, -0.8115, -8.4534, -2.3499, -9.7046
1495063133.0074460506,1495063133.0097239017, -0.8416,  0.1880, -0.8115, -7.2784, -1.3885, -9.0942
1495063133.0097939968,1495063133.0120699406, -0.8379,  0.1899, -0.8145, -7.2784, -1.3885, -9.0942
1495063133.0121400356,1495063133.0144159794, -0.8379,  0.1899, -0.8145, -7.2784, -1.3885, -9.0942
1495063133.0144860744,1495063133.0167660713, -0.8379,  0.1899, -0.8145, -7.2784, -1.3885, -9.0942
1495063133.0168368816,1495063133.0191171169, -0.8379,  0.1899, -0.8145, -7.2784, -1.3885, -8.2397
1495063133.0191888809,1495063133.0214669704, -0.8379,  0.1899, -0.8145, -6.2561, -0.5188, -8.2397
1495063133.0215380192,1495063133.0238120556, -0.8379,  0.1899, -0.8145, -6.2561, -0.5188, -8.2397
1495063133.0238831043,1495063133.0261600018, -0.8379,  0.1899, -0.8145, -6.2561, -0.5188, -8.2397
1495063133.0262320042,1495063133.0285470486, -0.8379,  0.1899, -0.8145, -6.2561, -0.5188, -8.2397
1495063133.0286190510,1495063133.0308969021, -0.8379,  0.1899, -0.7922, -5.2643,  0.4425, -6.9733
1495063133.0309669971,1495063133.0332410336, -0.8335,  0.1897, -0.7922, -5.2643,  0.4425, -6.9733
1495063133.0334210396,1495063133.0357060432, -0.8335,  0.1897, -0.7922, -5.2643,  0.4425, -6.9733
1495063133.0357770920,1495063133.0381000042, -0.8335,  0.1897, -0.7922, -5.2643,  0.4425, -6.9733
1495063133.0381700993,1495063133.0404489040, -0.8335,  0.1897, -0.7922, -5.2643,  0.5341, -5.9662
1495063133.0405199528,1495063133.0427980423, -0.8335,  0.1897, -0.7922, -4.3030,  0.5341, -5.9662
1495063133.0428690910,1495063133.0451440811, -0.8335,  0.1897, -0.7922, -4.3030,  0.5341, -5.9662
1495063133.0452148914,1495063133.0476601124, -0.8335,  0.1897, -0.7922, -4.3030,  0.5341, -5.9662
1495063133.0477299690,1495063133.0500149727, -0.8335,  0.1897, -0.7922, -4.3030,  0.5341, -5.9662
1495063133.0500860214,1495063133.0523700714, -0.8264,  0.1716, -0.8264, -3.7689,  1.1292, -5.7068
1495063133.0524380207,1495063133.0547180176, -0.8264,  0.1716, -0.8264, -3.7689,  1.1292, -5.7068
1495063133.0547881126,1495063133.0571479797, -0.8264,  0.1716, -0.8264, -3.7689,  1.1292, -5.7068
1495063133.0572259426,1495063133.0596470833, -0.8264,  0.1716, -0.8264, -3.7689,  1.1292, -5.7068
1495063133.0597178936,1495063133.0621271133, -0.8264,  0.1716, -0.8264, -3.2196,  1.8463, -4.7913
1495063133.0621969700,1495063133.0645968914, -0.8264,  0.1716, -0.8264, -3.2196,  1.8463, -4.7913
1495063133.0646669865,1495063133.0670828819, -0.8264,  0.1716, -0.8264, -3.2196,  1.8463, -4.7913
1495063133.0671520233,1495063133.0694398880, -0.8264,  0.1716, -0.8264, -3.2196,  1.8463, -4.7913
1495063133.0695090294,1495063133.0719530582, -0.8264,  0.1545, -0.8120, -3.2196,  1.8463, -3.6926
1495063133.0720219612,1495063133.0743050575, -0.8174,  0.1545, -0.8120, -2.0447,  2.3346, -3.6926
1495063133.0743749142,1495063133.0766549110, -0.8174,  0.1545, -0.8120, -2.0447,  2.3346, -3.6926
1495063133.0767250061,1495063133.0792438984, -0.8174,  0.1545, -0.8120, -2.0447,  2.3346, -3.6926
1495063133.0793149471,1495063133.0815949440, -0.8174,  0.1545, -0.8120, -2.0447,  2.3346, -3.6926
1495063133.0816650391,1495063133.0840671062, -0.8174,  0.1545, -0.8120, -1.5869,  2.6093, -3.0975
1495063133.0841369629,1495063133.0864140987, -0.8174,  0.1545, -0.8120, -1.5869,  2.6093, -3.0975
1495063133.0864830017,1495063133.0892319679, -0.8174,  0.1545, -0.8120, -1.5869,  2.6093, -3.0975
1495063133.0893061161,1495063133.0915920734, -0.8174,  0.1440, -0.7832, -1.5869,  2.6093, -3.0975
1495063133.0916640759,1495063133.0939450264, -0.8157,  0.1440, -0.7832, -0.5493,  2.6245, -3.1586
1495063133.0940160751,1495063133.0962939262, -0.8157,  0.1440, -0.7832, -0.5493,  2.6245, -3.1586
1495063133.0963640213,1495063133.0986909866, -0.8157,  0.1440, -0.7832, -0.5493,  2.6245, -3.1586
1495063133.0987610817,1495063133.1010379791, -0.8157,  0.1440, -0.7832, -0.5493,  2.6245, -3.1586
1495063133.1011080742,1495063133.1033830643, -0.8157,  0.1440, -0.7832, -0.5493,  2.6245, -3.3875
1495063133.1034541130,1495063133.1057310104, -0.8157,  0.1440, -0.7832,  0.1678,  2.1057, -3.3875
1495063133.1058011055,1495063133.1081271172, -0.8157,  0.1440, -0.7832,  0.1678,  2.1057, -3.3875
1495063133.1081979275,1495063133.1104750633, -0.8157,  0.1440, -0.7832,  0.1678,  2.1057, -3.3875
1495063133.1105461121,1495063133.1128239632, -0.8142,  0.1406, -0.7644,  0.1678,  2.1057, -3.3875
1495063133.1128940582,1495063133.1151759624, -0.8142,  0.1406, -0.7644, -0.1221,  2.0905, -3.2501
1495063133.1152470112,1495063133.1175730228, -0.8142,  0.1406, -0.7644, -0.1221,  2.0905, -3.2501
1495063133.1176450253,1495063133.1199200153, -0.8142,  0.1406, -0.7644, -0.1221,  2.0905, -3.2501
1495063133.1199920177,1495063133.1222679615, -0.8142,  0.1406, -0.7644, -0.1221,  2.0905, -3.2501
1495063133.1223390102,1495063133.1246130466, -0.8142,  0.1406, -0.7644, -0.1221,  2.0905, -2.4872
1495063133.1246850491,1495063133.1270329952, -0.8142,  0.1406, -0.7644, -1.0223,  1.6937, -2.4872
1495063133.1271030903,1495063133.1293840408, -0.8142,  0.1406, -0.7644, -1.0223,  1.6937, -2.4872
1495063133.1294529438,1495063133.1317288876, -0.8142,  0.1416, -0.7815, -1.0223,  1.6937, -2.4872
1495063133.1319060326,1495063133.1341869831, -0.8269,  0.1416, -0.7815, -1.0223,  1.6937, -2.4872
1495063133.1342570782,1495063133.1365358829, -0.8269,  0.1416, -0.7815, -1.4496,  1.1292, -2.9144
1495063133.1366050243,1495063133.1390240192, -0.8269,  0.1416, -0.7815, -1.4496,  1.1292, -2.9144
1495063133.1390941143,1495063133.1413741112, -0.8269,  0.1416, -0.7815, -1.4496,  1.1292, -2.9144
1495063133.1414439678,1495063133.1437170506, -0.8269,  0.1416, -0.7815, -1.4496,  1.1292, -2.9144
1495063133.1437869072,1495063133.1460630894, -0.8269,  0.1416, -0.7815, -1.4496,  0.5951, -2.5482
1495063133.1461329460,1495063133.1484489441, -0.8269,  0.1416, -0.7815, -1.9684,  0.5951, -2.5482
1495063133.1485190392,1495063133.1507930756, -0.8269,  0.1416, -0.7815, -1.9684,  0.5951, -2.5482
1495063133.1508638859,1495063133.1531450748, -0.8264,  0.1272, -0.7607, -1.9684,  0.5951, -2.5482
1495063133.1532158852,1495063133.1554880142, -0.8264,  0.1272, -0.7607, -1.9684,  0.5951, -2.5482
1495063133.1555590630,1495063133.1578409672, -0.8264,  0.1272, -0.7607, -3.0212, -0.0458, -2.4567
1495063133.1579120159,1495063133.1601889133, -0.8264,  0.1272, -0.7607, -3.0212, -0.0458, -2.4567
1495063133.1602590084,1495063133.1625349522, -0.8264,  0.1272, -0.7607, -3.0212, -0.0458, -2.4567
1495063133.1626060009,1495063133.1648819447, -0.8264,  0.1272, -0.7607, -3.0212, -0.0458, -2.4567
1495063133.1649539471,1495063133.1672570705, -0.8264,  0.1272, -0.7607, -3.0212, -1.1292, -2.2736
1495063133.1673269272,1495063133.1697180271, -0.8264,  0.1272, -0.7607, -3.8910, -1.1292, -2.2736
1495063133.1697878838,1495063133.1722240448, -0.8264,  0.1089, -0.7444, -3.8910, -1.1292, -2.2736
1495063133.1722960472,1495063133.1745810509, -0.8442,  0.1089, -0.7444, -3.8910, -1.1292, -2.2736
1495063133.1746530533,1495063133.1771340370, -0.8442,  0.1089, -0.7444, -3.8910, -1.1292, -2.2736
1495063133.1772060394,1495063133.1795859337, -0.8442,  0.1089, -0.7444, -4.2114, -2.2125, -2.3956
1495063133.1796560287,1495063133.1820259094, -0.8442,  0.1089, -0.7444, -4.2114, -2.2125, -2.3956
1495063133.1820969582,1495063133.1850259304, -0.8442,  0.1089, -0.7444, -4.2114, -2.2125, -2.3956
1495063133.1850988865,1495063133.1874170303, -0.8442,  0.1089, -0.7444, -4.2114, -2.2125, -2.3956
1495063133.1874868870,1495063133.1897699833, -0.8442,  0.1089, -0.7444, -4.5776, -3.0823, -2.9297
1495063133.1898400784,1495063133.1921238899, -0.8442,  0.0942, -0.7349, -4.5776, -3.0823, -2.9297
1495063133.1921958923,1495063133.1944758892, -0.8550,  0.0942, -0.7349, -4.5776, -3.0823, -2.9297
1495063133.1945469379,1495063133.1968259811, -0.8550,  0.0942, -0.7349, -4.5776, -3.0823, -2.9297
1495063133.1968970299,1495063133.1991930008, -0.8550,  0.0942, -0.7349, -4.8981, -4.5166, -3.8452
1495063133.1992650032,1495063133.2015480995, -0.8550,  0.0942, -0.7349, -4.8981, -4.5166, -3.8452
1495063133.2016189098,1495063133.2039000988, -0.8550,  0.0942, -0.7349, -4.8981, -4.5166, -3.8452
1495063133.2039699554,1495063133.2062480450, -0.8550,  0.0942, -0.7349, -4.8981, -4.5166, -3.8452
1495063133.2063190937,1495063133.2086019516, -0.8550,  0.0942, -0.7349, -4.8981, -4.5166, -3.8452
1495063133.2086720467,1495063133.2109589577, -0.8550,  0.0942, -0.7349, -5.4016, -5.4626, -4.5624
1495063133.2110290527,1495063133.2133040428, -0.8716,  0.0786, -0.7156, -5.4016, -5.4626, -4.5624
1495063133.2133738995,1495063133.2156538963, -0.8716,  0.0786, -0.7156, -5.4016, -5.4626, -4.5624
1495063133.2157239914,1495063133.2180130482, -0.8716,  0.0786, -0.7156, -5.4016, -5.4626, -4.5624
1495063133.2180840969,1495063133.2203609943, -0.8716,  0.0786, -0.7156, -6.2714, -6.9733, -5.6458
1495063133.2204320431,1495063133.2227210999, -0.8716,  0.0786, -0.7156, -6.2714, -6.9733, -5.6458
1495063133.2227909565,1495063133.2250719070, -0.8716,  0.0786, -0.7156, -6.2714, -6.9733, -5.6458
1495063133.2251420021,1495063133.2275168896, -0.8716,  0.0786, -0.7156, -6.2714, -6.9733, -5.6458
1495063133.2275879383,1495063133.2298779488, -0.8716,  0.0786, -0.7156, -6.2714, -6.9733, -5.6458
1495063133.2299470901,1495063133.2322299480, -0.8716,  0.0591, -0.7307, -6.7444, -8.2092, -6.2103
1495063133.2324259281,1495063133.2347130775, -0.8594,  0.0591, -0.7307, -6.7444, -8.2092, -6.2103
1495063133.2347850800,1495063133.2371869087, -0.8594,  0.0591, -0.7307, -6.7444, -8.2092, -6.2103
1495063133.2372679710,1495063133.2395560741, -0.8594,  0.0591, -0.7307, -6.7444, -8.2092, -6.2103
1495063133.2396290302,1495063133.2419140339, -0.8594,  0.0591, -0.7307, -7.5684, -9.3689, -7.0190
1495063133.2419860363,1495063133.2442688942, -0.8594,  0.0591, -0.7307, -7.5684, -9.3689, -7.0190
1495063133.2443408966,1495063133.2466220856, -0.8594,  0.0591, -0.7307, -7.5684, -9.3689, -7.0190
1495063133.2466940880,1495063133.2489869595, -0.8594,  0.0591, -0.7307, -7.5684, -9.3689, -7.0190
1495063133.2490599155,1495063133.2513430119, -0.8594,  0.0591, -0.7307, -7.5684, -9.3689, -7.7820
1495063133.2514159679,1495063133.2536969185, -0.8635,  0.0618, -0.7268, -8.4991,-10.2539, -7.7820
1495063133.2537729740,1495063133.2560501099, -0.8635,  0.0618, -0.7268, -8.4991,-10.2539, -7.7820
1495063133.2561240196,1495063133.2584118843, -0.8635,  0.0618, -0.7268, -8.4991,-10.2539, -7.7820
1495063133.2584869862,1495063133.2607700825, -0.8635,  0.0618, -0.7268, -8.4991,-10.2539, -7.7820
1495063133.2608439922,1495063133.2631249428, -0.8635,  0.0618, -0.7268, -9.3231,-11.5967, -8.2855
1495063133.2631990910,1495063133.2654800415, -0.8635,  0.0618, -0.7268, -9.3231,-11.5967, -8.2855
1495063133.2655549049,1495063133.2678461075, -0.8635,  0.0618, -0.7268, -9.3231,-11.5967, -8.2855
1495063133.2679219246,1495063133.2701959610, -0.8635,  0.0618, -0.7268, -9.3231,-11.5967, -8.2855
1495063133.2702710629,1495063133.2725460529, -0.8723,  0.0737, -0.7363, -9.3231,-11.5967, -8.5297
1495063133.2726209164,1495063133.2749950886, -0.8723,  0.0737, -0.7363, -9.7198,-12.7716, -8.5297
1495063133.2750799656,1495063133.2775270939, -0.8723,  0.0737, -0.7363, -9.7198,-12.7716, -8.5297
1495063133.2776029110,1495063133.2798810005, -0.8723,  0.0737, -0.7363, -9.7198,-12.7716, -8.5297
1495063133.2799549103,1495063133.2822310925, -0.8723,  0.0737, -0.7363, -9.7198,-12.7716, -8.5297
1495063133.2823050022,1495063133.2856879234, -0.8723,  0.0737, -0.7363,-10.5591,-13.0005, -8.8959
1495063133.2857699394,1495063133.2881309986, -0.8723,  0.0737, -0.7363,-10.5591,-13.0005, -8.8959
1495063133.2882089615,1495063133.2904899120, -0.8723,  0.0737, -0.7363,-10.5591,-13.0005, -8.8959
1495063133.2905659676,1495063133.2928440571, -0.8613,  0.0732, -0.7444,-10.5591,-13.0005, -8.8959
1495063133.2929220200,1495063133.2951989174, -0.8613,  0.0732, -0.7444,-10.9711,-13.3057, -9.1553
1495063133.2952771187,1495063133.2975859642, -0.8613,  0.0732, -0.7444,-10.9711,-13.3057, -9.1553
1495063133.2976629734,1495063133.2999460697, -0.8613,  0.0732, -0.7444,-10.9711,-13.3057, -9.1553
1495063133.3000230789,1495063133.3023009300, -0.8613,  0.0732, -0.7444,-10.9711,-13.3057, -9.1553
1495063133.3023779392,1495063133.3052120209, -0.8613,  0.0732, -0.7444,-10.9711,-14.0839, -9.5062
1495063133.3052909374,1495063133.3081820011, -0.8613,  0.0732, -0.7444,-12.2070,-14.0839, -9.5062
1495063133.3082609177,1495063133.3105421066, -0.8613,  0.0732, -0.7444,-12.2070,-14.0839, -9.5062
1495063133.3106200695,1495063133.3129000664, -0.8696,  0.0811, -0.7410,-12.2070,-14.0839, -9.5062
1495063133.3129789829,1495063133.3152608871, -0.8696,  0.0811, -0.7410,-12.2070,-14.1296, -9.5673
1495063133.3153390884,1495063133.3176259995, -0.8696,  0.0811, -0.7410,-13.1378,-14.1296, -9.5673
1495063133.3177049160,1495063133.3199799061, -0.8696,  0.0811, -0.7410,-13.1378,-14.1296, -9.5673
1495063133.3200581074,1495063133.3223350048, -0.8696,  0.0811, -0.7410,-13.1378,-14.1296, -9.5673
1495063133.3224110603,1495063133.3246889114, -0.8696,  0.0811, -0.7410,-13.1378,-14.1296, -9.5673
1495063133.3247659206,1495063133.3271141052, -0.8696,  0.0811, -0.7410,-14.2212,-14.2975, -9.8572
1495063133.3272020817,1495063133.3294920921, -0.8696,  0.0811, -0.7410,-14.2212,-14.2975, -9.8572
1495063133.3295700550,1495063133.3318519592, -0.8696,  0.0811, -0.7544,-14.2212,-14.2975, -9.8572
1495063133.3319289684,1495063133.3342120647, -0.8672,  0.0798, -0.7544,-14.2212,-14.2975, -9.8572
1495063133.3344049454,1495063133.3366909027, -0.8672,  0.0798, -0.7544,-13.8245,-14.4043, -9.8877
1495063133.3367679119,1495063133.3390960693, -0.8672,  0.0798, -0.7544,-13.8245,-14.4043, -9.8877
1495063133.3391718864,1495063133.3414471149, -0.8672,  0.0798, -0.7544,-13.8245,-14.4043, -9.8877
1495063133.3415238857,1495063133.3437950611, -0.8672,  0.0798, -0.7544,-13.8245,-14.4043, -9.8877
1495063133.3438720703,1495063133.3461480141, -0.8672,  0.0798, -0.7544,-13.8245,-14.4043, -9.8877
1495063133.3462250233,1495063133.3486349583, -0.8672,  0.0798, -0.7544,-13.3362,-13.5803,-10.1929
1495063133.3487129211,1495063133.3509929180, -0.8672,  0.0798, -0.7544,-13.3362,-13.5803,-10.1929
1495063133.3510699272,1495063133.3533480167, -0.8735,  0.0994, -0.7581,-13.3362,-13.5803,-10.1929
1495063133.3534269333,1495063133.3557059765, -0.8735,  0.0994, -0.7581,-13.3362,-13.5803,-10.1929
1495063133.3557839394,1495063133.3582348824, -0.8735,  0.0994, -0.7581,-13.1378,-13.1531,-10.4065
1495063133.3583140373,1495063133.3605899811, -0.8735,  0.0994, -0.7581,-13.1378,-13.1531,-10.4065
1495063133.3606688976,1495063133.3629450798, -0.8735,  0.0994, -0.7581,-13.1378,-13.1531,-10.4065
1495063133.3630239964,1495063133.3652989864, -0.8735,  0.0994, -0.7581,-13.1378,-13.1531,-10.4065
1495063133.3653769493,1495063133.3676650524, -0.8735,  0.0994, -0.7581,-13.1378,-13.1531, -9.7961
1495063133.3677420616,1495063133.3700160980, -0.8735,  0.0994, -0.7581,-12.9242,-13.1683, -9.7961
1495063133.3700931072,1495063133.3723709583, -0.8735,  0.1201, -0.7493,-12.9242,-13.1683, -9.7961
1495063133.3724479675,1495063133.3747289181, -0.8823,  0.1201, -0.7493,-12.9242,-13.1683, -9.7961
1495063133.3748049736,1495063133.3770849705, -0.8823,  0.1201, -0.7493,-12.9242,-13.1683, -9.7961
1495063133.3771619797,1495063133.3794410229, -0.8823,  0.1201, -0.7493,-12.8784,-12.5885, -9.6893
1495063133.3795180321,1495063133.3817911148, -0.8823,  0.1201, -0.7493,-12.8784,-12.5885, -9.6893
1495063133.3818669319,1495063133.3841431141, -0.8823,  0.1201, -0.7493,-12.8784,-12.5885, -9.6893
1495063133.3842179775,1495063133.3864970207, -0.8823,  0.1201, -0.7493,-12.8784,-12.5885, -9.6893
1495063133.3865740299,1495063133.3889091015, -0.8823,  0.1201, -0.7493,-12.8784,-12.5885, -9.3079
1495063133.3889861107,1495063133.3912649155, -0.8823,  0.1201, -0.7493,-12.8784,-11.7035, -9.3079
1495063133.3913419247,1495063133.3936209679, -0.8945,  0.1216, -0.7627,-12.8784,-11.7035, -9.3079
1495063133.3936979771,1495063133.3961288929, -0.8945,  0.1216, -0.7627,-12.8784,-11.7035, -9.3079
1495063133.3962059021,1495063133.3987059593, -0.8945,  0.1216, -0.7627,-12.8784,-11.7035, -9.3079
1495063133.3987829685,1495063133.4010679722, -0.8945,  0.1216, -0.7627,-12.3749,-11.3678, -8.9264
1495063133.4011449814,1495063133.4042339325, -0.8945,  0.1216, -0.7627,-12.3749,-11.3678, -8.9264
1495063133.4043140411,1495063133.4065968990, -0.8945,  0.1216, -0.7627,-12.3749,-11.3678, -8.9264
1495063133.4066729546,1495063133.4089579582, -0.8945,  0.1216, -0.7627,-12.3749,-11.3678, -8.9264
1495063133.4090349674,1495063133.4113109112, -0.8945,  0.1216, -0.7627,-12.2070,-10.8032, -8.5754
1495063133.4113891125,1495063133.4136750698, -0.8872,  0.1248, -0.7839,-12.2070,-10.8032, -8.5754
1495063133.4137530327,1495063133.4160349369, -0.8872,  0.1248, -0.7839,-12.2070,-10.8032, -8.5754
1495063133.4161119461,1495063133.4184091091, -0.8872,  0.1248, -0.7839,-12.2070,-10.8032, -8.5754
1495063133.4184870720,1495063133.4207661152, -0.8872,  0.1248, -0.7839,-12.2070,-10.8032, -8.1482
1495063133.4208428860,1495063133.4231209755, -0.8872,  0.1248, -0.7839,-11.9171, -9.6588, -8.1482
1495063133.4231960773,1495063133.4254760742, -0.8872,  0.1248, -0.7839,-11.9171, -9.6588, -8.1482
1495063133.4255499840,1495063133.4278380871, -0.8872,  0.1248, -0.7839,-11.9171, -9.6588, -8.1482
1495063133.4279129505,1495063133.4301970005, -0.8872,  0.1248, -0.7839,-11.9171, -9.6588, -8.1482
1495063133.4302721024,1495063133.4325530529, -0.8872,  0.1353, -0.7900,-11.3983, -8.3618, -7.8278
1495063133.4326269627,1495063133.4349029064, -0.8853,  0.1353, -0.7900,-11.3983, -8.3618, -7.8278
1495063133.4350869656,1495063133.4374299049, -0.8853,  0.1353, -0.7900,-11.3983, -8.3618, -7.8278
1495063133.4375030994,1495063133.4399759769, -0.8853,  0.1353, -0.7900,-11.3983, -8.3618, -7.8278
1495063133.4400510788,1495063133.4423289299, -0.8853,  0.1353, -0.7900,-11.0931, -7.2784, -6.9733
1495063133.4424030781,1495063133.4446880817, -0.8853,  0.1353, -0.7900,-11.0931, -7.2784, -6.9733
1495063133.4447619915,1495063133.4471271038, -0.8853,  0.1353, -0.7900,-11.0931, -7.2784, -6.9733
1495063133.4472010136,1495063133.4494879246, -0.8853,  0.1353, -0.7900,-11.0931, -7.2784, -6.9733
1495063133.4495620728,1495063133.4518499374, -0.8853,  0.1353, -0.7900,-11.0931, -7.2784, -6.9733
1495063133.4519219398,1495063133.4542028904, -0.8770,  0.1389, -0.7839,-10.2539, -5.6458, -6.4240
1495063133.4542770386,1495063133.4565570354, -0.8770,  0.1389, -0.7839,-10.2539, -5.6458, -6.4240
1495063133.4566309452,1495063133.4589989185, -0.8770,  0.1389, -0.7839,-10.2539, -5.6458, -6.4240
1495063133.4590730667,1495063133.4613571167, -0.8770,  0.1389, -0.7839,-10.2539, -5.6458, -6.4240
1495063133.4614310265,1495063133.4637079239, -0.8770,  0.1389, -0.7839,-10.4218, -4.9591, -5.8899
1495063133.4637811184,1495063133.4660589695, -0.8770,  0.1389, -0.7839,-10.4218, -4.9591, -5.8899
1495063133.4661331177,1495063133.4684240818, -0.8770,  0.1389, -0.7839,-10.4218, -4.9591, -5.8899
1495063133.4684979916,1495063133.4707880020, -0.8770,  0.1389, -0.7839,-10.4218, -4.9591, -5.8899
1495063133.4708619118,1495063133.4731380939, -0.8655,  0.1411, -0.7678,-10.4218, -4.9591, -5.8899
1495063133.4732120037,1495063133.4754900932, -0.8655,  0.1411, -0.7678, -9.8877, -3.4180, -5.6000
1495063133.4755599499,1495063133.4778978825, -0.8655,  0.1411, -0.7678, -9.8877, -3.4180, -5.6000
1495063133.4779698849,1495063133.4803779125, -0.8655,  0.1411, -0.7678, -9.8877, -3.4180, -5.6000
1495063133.4804489613,1495063133.4828588963, -0.8655,  0.1411, -0.7678, -9.8877, -3.4180, -5.6000
1495063133.4829308987,1495063133.4853320122, -0.8655,  0.1411, -0.7678, -9.7961, -2.1362, -4.6387
1495063133.4854021072,1495063133.4878199100, -0.8655,  0.1411, -0.7678, -9.7961, -2.1362, -4.6387
1495063133.4878909588,1495063133.4903030396, -0.8655,  0.1411, -0.7678, -9.7961, -2.1362, -4.6387
1495063133.4903740883,1495063133.4927799702, -0.8655,  0.1519, -0.7664, -9.7961, -2.1362, -4.6387
1495063133.4928510189,1495063133.4952600002, -0.8704,  0.1519, -0.7664,-10.0555, -1.2817, -3.6469
1495063133.4953351021,1495063133.4977929592, -0.8704,  0.1519, -0.7664,-10.0555, -1.2817, -3.6469
1495063133.4978680611,1495063133.5002789497, -0.8704,  0.1519, -0.7664,-10.0555, -1.2817, -3.6469
1495063133.5003540516,1495063133.5027620792, -0.8704,  0.1519, -0.7664,-10.0555, -1.2817, -3.6469
1495063133.5028359890,1495063133.5052490234, -0.8704,  0.1519, -0.7664,-10.0555, -1.2817, -3.5400
1495063133.5053229332,1495063133.5077450275, -0.8704,  0.1519, -0.7664,-10.2997, -1.3885, -3.5400
1495063133.5078189373,1495063133.5101070404, -0.8704,  0.1519, -0.7664,-10.2997, -1.3885, -3.5400
1495063133.5101799965,1495063133.5124630928, -0.8704,  0.1714, -0.7722,-10.2997, -1.3885, -3.5400
1495063133.5125360489,1495063133.5149459839, -0.8782,  0.1714, -0.7722,-10.2997, -1.3885, -3.5400
1495063133.5150198936,1495063133.5183451176, -0.8782,  0.1714, -0.7722,-11.1542, -1.0376, -3.2043
1495063133.5184218884,1495063133.5207068920, -0.8782,  0.1714, -0.7722,-11.1542, -1.0376, -3.2043
1495063133.5207810402,1495063133.5230610371, -0.8782,  0.1714, -0.7722,-11.1542, -1.0376, -3.2043
1495063133.5231339931,1495063133.5254030228, -0.8782,  0.1714, -0.7722,-11.1542, -1.0376, -3.2043
1495063133.5254759789,1495063133.5278038979, -0.8782,  0.1714, -0.7722,-12.0850, -0.8698, -3.0365
1495063133.5278789997,1495063133.5301580429, -0.8782,  0.1714, -0.7722,-12.0850, -0.8698, -3.0365
1495063133.5302329063,1495063133.5325109959, -0.8782,  0.1597, -0.7581,-12.0850, -0.8698, -3.0365
1495063133.5325849056,1495063133.5348660946, -0.8682,  0.1597, -0.7581,-12.0850, -0.8698, -3.0365
1495063133.5349400043,1495063133.5372231007, -0.8682,  0.1597, -0.7581,-12.0850, -0.9613, -2.6093
1495063133.5374228954,1495063133.5397160053, -0.8682,  0.1597, -0.7581,-12.7716, -0.9613, -2.6093
1495063133.5397911072,1495063133.5420660973, -0.8682,  0.1597, -0.7581,-12.7716, -0.9613, -2.6093
1495063133.5421409607,1495063133.5444190502, -0.8682,  0.1597, -0.7581,-12.7716, -0.9613, -2.6093
1495063133.5444929600,1495063133.5467770100, -0.8682,  0.1597, -0.7581,-12.7716, -0.9613, -2.6093
1495063133.5468521118,1495063133.5491349697, -0.8682,  0.1597, -0.7581,-12.5275, -0.3204, -2.8076
1495063133.5492100716,1495063133.5514929295, -0.8682,  0.1597, -0.7581,-12.5275, -0.3204, -2.8076
1495063133.5515670776,1495063133.5538489819, -0.8599,  0.1648, -0.7542,-12.5275, -0.3204, -2.8076
1495063133.5539240837,1495063133.5562028885, -0.8599,  0.1648, -0.7542,-12.5275, -0.3204, -2.8076
1495063133.5562770367,1495063133.5585789680, -0.8599,  0.1648, -0.7542,-12.5275,  0.3510, -2.7008
1495063133.5586540699,1495063133.5609378815, -0.8599,  0.1648, -0.7542,-12.5732,  0.3510, -2.7008
1495063133.5610129833,1495063133.5632960796, -0.8599,  0.1648, -0.7542,-12.5732,  0.3510, -2.7008
1495063133.5633699894,1495063133.5656518936, -0.8599,  0.1648, -0.7542,-12.5732,  0.3510, -2.7008
1495063133.5657269955,1495063133.5681118965, -0.8599,  0.1648, -0.7542,-12.5732,  0.3510, -2.7008
1495063133.5681879520,1495063133.5704700947, -0.8599,  0.1648, -0.7542,-12.4664,  0.4272, -2.2736
1495063133.5705449581,1495063133.5728249550, -0.8599,  0.1804, -0.7534,-12.4664,  0.4272, -2.2736
1495063133.5728991032,1495063133.5751750469, -0.8667,  0.1804, -0.7534,-12.4664,  0.4272, -2.2736
1495063133.5752480030,1495063133.5776939392, -0.8667,  0.1804, -0.7534,-12.4664,  0.4272, -2.2736
1495063133.5777690411,1495063133.5800440311, -0.8667,  0.1804, -0.7534,-12.7869,  1.0529, -2.0294
1495063133.5801169872,1495063133.5823960304, -0.8667,  0.1804, -0.7534,-12.7869,  1.0529, -2.0294
1495063133.5824699402,1495063133.5847539902, -0.8667,  0.1804, -0.7534,-12.7869,  1.0529, -2.0294
1495063133.5848269463,1495063133.5871410370, -0.8667,  0.1804, -0.7534,-12.7869,  1.0529, -2.0294
1495063133.5872149467,1495063133.5894930363, -0.8667,  0.1804, -0.7534,-12.7869,  1.0529, -1.2665
1495063133.5895659924,1495063133.5918459892, -0.8667,  0.1804, -0.7534,-11.9019,  1.6632, -1.2665
1495063133.5919189453,1495063133.5941929817, -0.8699,  0.1965, -0.7620,-11.9019,  1.6632, -1.2665
1495063133.5942659378,1495063133.5965490341, -0.8699,  0.1965, -0.7620,-11.9019,  1.6632, -1.2665
1495063133.5966229439,1495063133.5989029408, -0.8699,  0.1965, -0.7620,-11.9019,  1.6632, -1.2665
1495063133.5989780426,1495063133.6012549400, -0.8699,  0.1965, -0.7620,-10.5896,  2.0752,  0.4425
1495063133.6013300419,1495063133.6036119461, -0.8699,  0.1965, -0.7620,-10.5896,  2.0752,  0.4425
1495063133.6036860943,1495063133.6059648991, -0.8699,  0.1965, -0.7620,-10.5896,  2.0752,  0.4425
1495063133.6060400009,1495063133.6083400249, -0.8699,  0.1965, -0.7620,-10.5896,  2.0752,  0.4425
1495063133.6084139347,1495063133.6106989384, -0.8699,  0.1965, -0.7620,-10.5896,  2.0752,  1.1139
1495063133.6107730865,1495063133.6130468845, -0.8699,  0.1584, -0.7686, -9.1095,  2.9907,  1.1139
1495063133.6131179333,1495063133.6153988838, -0.8650,  0.1584, -0.7686, -9.1095,  2.9907,  1.1139
1495063133.6154699326,1495063133.6177880764, -0.8650,  0.1584, -0.7686, -9.1095,  2.9907,  1.1139
1495063133.6178588867,1495063133.6201438904, -0.8650,  0.1584, -0.7686, -9.1095,  2.9907,  1.1139
1495063133.6202149391,1495063133.6224980354, -0.8650,  0.1584, -0.7686, -6.3782,  2.9755,  2.0294
1495063133.6225678921,1495063133.6248450279, -0.8650,  0.1584, -0.7686, -6.3782,  2.9755,  2.0294
1495063133.6249148846,1495063133.6272211075, -0.8650,  0.1584, -0.7686, -6.3782,  2.9755,  2.0294
1495063133.6272909641,1495063133.6297080517, -0.8650,  0.1584, -0.7686, -6.3782,  2.9755,  2.0294
1495063133.6297791004,1495063133.6321849823, -0.8650,  0.1584, -0.7686, -6.3782,  6.8817,  2.1667
1495063133.6322550774,1495063133.6347200871, -0.8594,  0.1411, -0.7634, -4.4250,  3.9520,  2.1667
1495063133.6348950863,1495063133.6373050213, -0.8594,  0.1411, -0.7634, -4.4250,  3.9520,  2.1667
1495063133.6373751163,1495063133.6397809982, -0.8594,  0.1411, -0.7634, -4.4250,  3.9520,  2.1667
1495063133.6398499012,1495063133.6422550678, -0.8594,  0.1411, -0.7634, -4.4250,  3.9520,  2.1667
1495063133.6423249245,1495063133.6447260380, -0.8594,  0.1411, -0.7634, -3.3112,  4.6997,  1.8311
1495063133.6447958946,1495063133.6472070217, -0.8594,  0.1411, -0.7634, -3.3112,  4.6997,  1.8311
1495063133.6472780704,1495063133.6495571136, -0.8594,  0.1411, -0.7634, -3.3112,  4.6997,  1.8311
1495063133.6496269703,1495063133.6519119740, -0.8594,  0.1411, -0.7634, -3.3112,  4.6997,  1.8311
1495063133.6519820690,1495063133.6542639732, -0.8750,  0.1489, -0.7366, -2.2430,  4.8218,  1.8311
1495063133.6543350220,1495063133.6566159725, -0.8750,  0.1489, -0.7366, -2.2430,  4.8218,  1.8311
1495063133.6566860676,1495063133.6590909958, -0.8750,  0.1489, -0.7366, -2.2430,  4.8218,  1.8311
1495063133.6591620445,1495063133.6615729332, -0.8750,  0.1489, -0.7366, -2.2430,  4.8218,  1.8311
1495063133.6616430283,1495063133.6640529633, -0.8750,  0.1489, -0.7366, -2.2430,  4.3945,  1.9226
1495063133.6641230583,1495063133.6665310860, -0.8750,  0.1489, -0.7366, -1.2970,  4.3945,  1.9226
1495063133.6666009426,1495063133.6689190865, -0.8750,  0.1489, -0.7366, -1.2970,  4.3945,  1.9226
1495063133.6689898968,1495063133.6712720394, -0.8750,  0.1489, -0.7366, -1.2970,  4.3945,  1.9226
1495063133.6713418961,1495063133.6736259460, -0.8774,  0.1526, -0.7336, -1.2970,  4.3945,  1.9226
1495063133.6736960411,1495063133.6759738922, -0.8774,  0.1526, -0.7336, -1.2054,  4.4098,  1.9379
1495063133.6760439873,1495063133.6784350872, -0.8774,  0.1526, -0.7336, -1.2054,  4.4098,  1.9379
1495063133.6785070896,1495063133.6807899475, -0.8774,  0.1526, -0.7336, -1.2054,  4.4098,  1.9379
1495063133.6808600426,1495063133.6831378937, -0.8774,  0.1526, -0.7336, -1.2054,  4.4098,  1.9379
1495063133.6832070351,1495063133.6855609417, -0.8774,  0.1526, -0.7336, -1.3428,  3.8757,  1.6785
1495063133.6856310368,1495063133.6881599426, -0.8774,  0.1526, -0.7336, -1.3428,  3.8757,  1.6785
1495063133.6882309914,1495063133.6905069351, -0.8774,  0.1526, -0.7336, -1.3428,  3.8757,  1.6785
1495063133.6905760765,1495063133.6928620338, -0.8774,  0.1526, -0.7319, -1.3428,  3.8757,  1.6785
1495063133.6929318905,1495063133.6952140331, -0.8652,  0.1624, -0.7319, -1.3428,  3.8757,  1.4801
1495063133.6952829361,1495063133.6977128983, -0.8652,  0.1624, -0.7319, -1.3428,  3.1433,  1.4801
1495063133.6977829933,1495063133.7000679970, -0.8652,  0.1624, -0.7319, -1.3428,  3.1433,  1.4801
1495063133.7001390457,1495063133.7024190426, -0.8652,  0.1624, -0.7319, -1.3428,  3.1433,  1.4801
1495063133.7024888992,1495063133.7048571110, -0.8652,  0.1624, -0.7319, -1.3428,  3.1433,  1.4801
1495063133.7049279213,1495063133.7075760365, -0.8652,  0.1624, -0.7319, -0.7477,  2.7008,  1.0681
1495063133.7076549530,1495063133.7100470066, -0.8652,  0.1624, -0.7319, -0.7477,  2.7008,  1.0681
1495063133.7101199627,1495063133.7124049664, -0.8652,  0.1624, -0.7319, -0.7477,  2.7008,  1.0681
1495063133.7124760151,1495063133.7147510052, -0.8655,  0.1729, -0.7419, -0.7477,  2.7008,  1.0681
1495063133.7148220539,1495063133.7171471119, -0.8655,  0.1729, -0.7419,  3.1586,  1.7090,  1.6022
1495063133.7172169685,1495063133.7194950581, -0.8655,  0.1729, -0.7419,  0.2289,  1.7090,  1.6022
1495063133.7195670605,1495063133.7218449116, -0.8655,  0.1729, -0.7419,  0.2289,  1.7090,  1.6022
1495063133.7219159603,1495063133.7241959572, -0.8655,  0.1729, -0.7419,  0.2289,  1.7090,  1.6022
1495063133.7242660522,1495063133.7265439034, -0.8655,  0.1729, -0.7419,  0.2289,  1.7090,  1.6022
1495063133.7266149521,1495063133.7289071083, -0.8655,  0.1729, -0.7419,  0.8087,  1.6937,  2.0599
1495063133.7289769650,1495063133.7312641144, -0.8655,  0.1729, -0.7419,  0.8087,  1.6937,  2.0599
1495063133.7313330173,1495063133.7336149216, -0.8665,  0.1755, -0.7429,  0.8087,  1.6937,  2.0599
1495063133.7336840630,1495063133.7359681129, -0.8665,  0.1755, -0.7429,  0.8087,  1.6937,  2.0599
1495063133.7361490726,1495063133.7385900021, -0.8665,  0.1755, -0.7429,  0.6256,  1.4801,  2.4719
1495063133.7386610508,1495063133.7409400940, -0.8665,  0.1755, -0.7429,  0.6256,  1.4801,  2.4719
1495063133.7410099506,1495063133.7432980537, -0.8665,  0.1755, -0.7429,  0.6256,  1.4801,  2.4719
1495063133.7433679104,1495063133.7456440926, -0.8665,  0.1755, -0.7429,  0.6256,  1.4801,  2.4719
1495063133.7457149029,1495063133.7480061054, -0.8665,  0.1755, -0.7429,  0.6256,  1.4801,  2.4719
1495063133.7480769157,1495063133.7503681183, -0.8665,  0.1755, -0.7429,  0.5493,  0.8392,  2.4719
1495063133.7504389286,1495063133.7527229786, -0.8665,  0.1755, -0.7397,  0.5493,  0.8392,  2.4719
1495063133.7527918816,1495063133.7550809383, -0.8528,  0.1538, -0.7397,  0.5493,  0.8392,  2.4719
1495063133.7551510334,1495063133.7576398849, -0.8528,  0.1538, -0.7397,  0.5493,  0.8392,  2.4719
1495063133.7577109337,1495063133.7600049973, -0.8528,  0.1538, -0.7397, -0.9155,  0.2289,  2.1210
1495063133.7600769997,1495063133.7623620033, -0.8528,  0.1538, -0.7397, -0.9155,  0.2289,  2.1210
1495063133.7624330521,1495063133.7647130489, -0.8528,  0.1538, -0.7397, -0.9155,  0.2289,  2.1210
1495063133.7647840977,1495063133.7672159672, -0.8528,  0.1538, -0.7397, -0.9155,  0.2289,  2.1210
1495063133.7672960758,1495063133.7697188854, -0.8528,  0.1538, -0.7397, -0.9155, -3.6774,  2.5635
1495063133.7697908878,1495063133.7721939087, -0.8528,  0.1538, -0.7397, -1.6632, -0.4883,  2.5635
1495063133.7722640038,1495063133.7746739388, -0.8540,  0.1333, -0.7478, -1.6632, -0.4883,  2.5635
1495063133.7747459412,1495063133.7771680355, -0.8540,  0.1333, -0.7478, -1.6632, -0.4883,  2.5635
1495063133.7772390842,1495063133.7796509266, -0.8540,  0.1333, -0.7478, -1.6632, -0.4883,  2.5635
1495063133.7797219753,1495063133.7821381092, -0.8540,  0.1333, -0.7478, -2.2278, -1.4343,  2.3346
1495063133.7822079659,1495063133.7847709656, -0.8540,  0.1333, -0.7478, -2.2278, -1.4343,  2.3346
1495063133.7848420143,1495063133.7873399258, -0.8540,  0.1333, -0.7478, -2.2278, -1.4343,  2.3346
1495063133.7874100208,1495063133.7897839546, -0.8540,  0.1333, -0.7478, -2.2278, -1.4343,  2.3346
1495063133.7898540497,1495063133.7922201157, -0.8540,  0.1333, -0.7478, -2.3193, -1.4191,  2.2125
1495063133.7922909260,1495063133.7949130535, -0.8645,  0.1433, -0.7451, -2.3193, -1.4191,  2.2125
1495063133.7949850559,1495063133.7972640991, -0.8645,  0.1433, -0.7451, -2.3193, -1.4191,  2.2125
1495063133.7973339558,1495063133.7996089458, -0.8645,  0.1433, -0.7451, -2.3193, -1.4191,  2.2125
1495063133.7996790409,1495063133.8019609451, -0.8645,  0.1433, -0.7451, -2.3804, -1.5411,  2.8229
1495063133.8020310402,1495063133.8043100834, -0.8645,  0.1433, -0.7451, -2.3804, -1.5411,  2.8229
1495063133.8043799400,1495063133.8066608906, -0.8645,  0.1433, -0.7451, -2.3804, -1.5411,  2.8229
1495063133.8067309856,1495063133.8090660572, -0.8645,  0.1433, -0.7451, -2.3804, -1.5411,  2.8229
1495063133.8091359138,1495063133.8114159107, -0.8645,  0.1433, -0.7451, -2.3804, -1.5411,  2.8229
1495063133.8114860058,1495063133.8137679100, -0.8564,  0.1514, -0.7732, -2.6855, -2.1057,  2.9755
1495063133.8138380051,1495063133.8161160946, -0.8564,  0.1514, -0.7732, -2.6855, -2.1057,  2.9755
1495063133.8161859512,1495063133.8185029030, -0.8564,  0.1514, -0.7732, -2.6855, -2.1057,  2.9755
1495063133.8185720444,1495063133.8208479881, -0.8564,  0.1514, -0.7732, -2.6855, -2.1057,  2.9755
1495063133.8209168911,1495063133.8231909275, -0.8564,  0.1514, -0.7732, -3.1281, -2.0752,  3.4790
1495063133.8232610226,1495063133.8255360126, -0.8564,  0.1514, -0.7732, -3.1281, -2.0752,  3.4790
1495063133.8256061077,1495063133.8279390335, -0.8564,  0.1514, -0.7732, -3.1281, -2.0752,  3.4790
1495063133.8280100822,1495063133.8302860260, -0.8564,  0.1514, -0.7732, -3.1281, -2.0752,  3.4790
1495063133.8303558826,1495063133.8326370716, -0.8564,  0.1514, -0.7732, -3.1281, -2.0752,  3.4943
1495063133.8327059746,1495063133.8349850178, -0.8550,  0.1294, -0.7795, -3.2043, -2.0142,  3.4943
1495063133.8350551128,1495063133.8374829292, -0.8550,  0.1294, -0.7795, -3.2043, -2.0142,  3.4943
1495063133.8376660347,1495063133.8399479389, -0.8550,  0.1294, -0.7795, -3.2043, -2.0142,  3.4943
1495063133.8400180340,1495063133.8422989845, -0.8550,  0.1294, -0.7795, -3.2043, -2.0142,  3.4943
1495063133.8423690796,1495063133.8446519375, -0.8550,  0.1294, -0.7795, -2.4261, -1.7242,  3.2806
1495063133.8447210789,1495063133.8471100330, -0.8550,  0.1294, -0.7795, -2.4261, -1.7242,  3.2806
1495063133.8471798897,1495063133.8494589329, -0.8550,  0.1294, -0.7795, -2.4261, -1.7242,  3.2806
1495063133.8495290279,1495063133.8518049717, -0.8550,  0.1294, -0.7795, -2.4261, -1.7242,  3.2806
1495063133.8518750668,1495063133.8541491032, -0.8625,  0.1238, -0.7739, -2.4261, -1.7242,  3.5095
1495063133.8542189598,1495063133.8564939499, -0.8625,  0.1238, -0.7739, -0.9003, -1.1139,  3.5095
1495063133.8565649986,1495063133.8588960171, -0.8625,  0.1238, -0.7739, -0.9003, -1.1139,  3.5095
1495063133.8589680195,1495063133.8612480164, -0.8625,  0.1238, -0.7739, -0.9003, -1.1139,  3.5095
1495063133.8613200188,1495063133.8635940552, -0.8625,  0.1238, -0.7739, -0.9003, -1.1139,  3.5095
1495063133.8636639118,1495063133.8659410477, -0.8625,  0.1238, -0.7739, -0.5493, -0.8087,  3.1433
1495063133.8660120964,1495063133.8683469296, -0.8625,  0.1238, -0.7739, -0.5493, -0.8087,  3.1433
1495063133.8684189320,1495063133.8707089424, -0.8625,  0.1238, -0.7739, -0.5493, -0.8087,  3.1433
1495063133.8707799911,1495063133.8730669022, -0.8625,  0.1238, -0.7744, -0.5493, -0.8087,  3.1433
1495063133.8731379509,1495063133.8754220009, -0.8530,  0.1077, -0.7744, -0.5493, -1.2970,  3.0212
1495063133.8754940033,1495063133.8777968884, -0.8530,  0.1077, -0.7744, -1.6174, -1.2970,  3.0212
1495063133.8778679371,1495063133.8801488876, -0.8530,  0.1077, -0.7744, -1.6174, -1.2970,  3.0212
1495063133.8802189827,1495063133.8824970722, -0.8530,  0.1077, -0.7744, -1.6174, -1.2970,  3.0212
1495063133.8825678825,1495063133.8848469257, -0.8530,  0.1077, -0.7744, -1.6174, -1.2970,  3.0212
1495063133.8849170208,1495063133.8872759342, -0.8530,  0.1077, -0.7744, -2.2736, -1.1597,  2.5482
1495063133.8873538971,1495063133.8897349834, -0.8530,  0.1077, -0.7744, -2.2736, -1.1597,  2.5482
1495063133.8898069859,1495063133.8920838833, -0.8530,  0.1077, -0.7744, -2.2736, -1.1597,  2.5482
1495063133.8921558857,1495063133.8944320679, -0.8596,  0.1079, -0.7649, -2.2736, -1.1597,  2.5482
1495063133.8945019245,1495063133.8967850208, -0.8596,  0.1079, -0.7649, -2.2736, -0.9766,  2.1210
1495063133.8968560696,1495063133.8992259502, -0.8596,  0.1079, -0.7649, -2.1210, -0.9766,  2.1210
1495063133.8992979527,1495063133.9015839100, -0.8596,  0.1079, -0.7649, -2.1210, -0.9766,  2.1210
1495063133.9016559124,1495063133.9040610790, -0.8596,  0.1079, -0.7649, -2.1210, -0.9766,  2.1210
1495063133.9041330814,1495063133.9064130783, -0.8596,  0.1079, -0.7649, -2.1210, -0.9766,  2.1210
1495063133.9064838886,1495063133.9097280502, -0.8596,  0.1079, -0.7649, -2.1820, -0.9613,  0.7935
1495063133.9098019600,1495063133.9120800495, -0.8596,  0.1079, -0.7649, -2.1820, -0.9613,  0.7935
1495063133.9121520519,1495063133.9144248962, -0.8569,  0.1182, -0.7468, -2.1820, -0.9613,  0.7935
1495063133.9144968987,1495063133.9167730808, -0.8569,  0.1182, -0.7468, -2.1820, -0.9613,  0.7935
1495063133.9168438911,1495063133.9191579819, -0.8569,  0.1182, -0.7468, -2.2125, -1.2054,  0.0763
1495063133.9192309380,1495063133.9215080738, -0.8569,  0.1182, -0.7468, -2.2125, -1.2054,  0.0763
1495063133.9215800762,1495063133.9238560200, -0.8569,  0.1182, -0.7468, -2.2125, -1.2054,  0.0763
1495063133.9239270687,1495063133.9262061119, -0.8569,  0.1182, -0.7468, -2.2125, -1.2054,  0.0763
1495063133.9262790680,1495063133.9285659790, -0.8569,  0.1182, -0.7468, -2.2125, -1.6174, -0.6409
1495063133.9286379814,1495063133.9309198856, -0.8569,  0.1182, -0.7468, -3.5400, -1.6174, -0.6409
1495063133.9309909344,1495063133.9332690239, -0.8569,  0.1182, -0.7451, -3.5400, -1.6174, -0.6409
1495063133.9333400726,1495063133.9356179237, -0.8525,  0.1306, -0.7451, -3.5400, -1.6174, -0.6409
1495063133.9356880188,1495063133.9379739761, -0.8525,  0.1306, -0.7451, -3.5400, -1.6174, -0.6409
1495063133.9381539822,1495063133.9404370785, -0.8525,  0.1306, -0.7451, -5.3253, -2.0905, -1.1597
1495063133.9405069351,1495063133.9427831173, -0.8525,  0.1306, -0.7451, -5.3253, -2.0905, -1.1597
1495063133.9428529739,1495063133.9451260567, -0.8525,  0.1306, -0.7451, -5.3253, -2.0905, -1.1597
1495063133.9451959133,1495063133.9474730492, -0.8525,  0.1306, -0.7451, -5.3253, -2.0905, -1.1597
1495063133.9475429058,1495063133.9498200417, -0.8525,  0.1306, -0.7451, -7.0953, -2.4261, -2.1057
1495063133.9498889446,1495063133.9521670341, -0.8525,  0.1306, -0.7451, -7.0953, -2.4261, -2.1057
1495063133.9522349834,1495063133.9545130730, -0.8442,  0.1270, -0.7522, -7.0953, -2.4261, -2.1057
1495063133.9545819759,1495063133.9568591118, -0.8442,  0.1270, -0.7522, -7.0953, -2.4261, -2.1057
1495063133.9571399689,1495063133.9594249725, -0.8442,  0.1270, -0.7522, -7.0953, -2.4261, -2.1057
1495063133.9594950676,1495063133.9617750645, -0.8442,  0.1270, -0.7522, -8.0872, -2.7008, -2.4109
1495063133.9618461132,1495063133.9641220570, -0.8442,  0.1270, -0.7522, -8.0872, -2.7008, -2.4109
1495063133.9641931057,1495063133.9664680958, -0.8442,  0.1270, -0.7522, -8.0872, -2.7008, -2.4109
1495063133.9665400982,1495063133.9689719677, -0.8442,  0.1270, -0.7522, -8.0872, -2.7008, -2.4109
1495063133.9690439701,1495063133.9713261127, -0.8442,  0.1270, -0.7522, -8.2550, -2.1820, -3.1586
1495063133.9713969231,1495063133.9736680984, -0.8442,  0.1267, -0.7542, -8.2550, -2.1820, -3.1586
1495063133.9737389088,1495063133.9760169983, -0.8496,  0.1267, -0.7542, -8.2550, -2.1820, -3.1586
1495063133.9760880470,1495063133.9783880711, -0.8496,  0.1267, -0.7542, -8.2550, -2.1820, -3.1586
1495063133.9784588814,1495063133.9807391167, -0.8496,  0.1267, -0.7542, -8.2550, -2.1820, -3.7231
1495063133.9808099270,1495063133.9830870628, -0.8496,  0.1267, -0.7542, -8.8806, -2.7618, -3.7231
1495063133.9831569195,1495063133.9854409695, -0.8496,  0.1267, -0.7542, -8.8806, -2.7618, -3.7231
1495063133.9855110645,1495063133.9877979755, -0.8496,  0.1267, -0.7542, -8.8806, -2.7618, -3.7231
1495063133.9878690243,1495063133.9901518822, -0.8496,  0.1267, -0.7542, -8.8806, -2.7618, -3.7231
1495063133.9902229309,1495063133.9926099777, -0.8496,  0.1267, -0.7542, -9.2773, -2.9297, -4.4250
1495063133.9926819801,1495063133.9949600697, -0.8440,  0.1384, -0.7554, -9.2773, -2.9297, -4.4250
1495063133.9950320721,1495063133.9975159168, -0.8440,  0.1384, -0.7554, -9.2773, -2.9297, -4.4250
1495063133.9975869656,1495063133.9998679161, -0.8440,  0.1384, -0.7554, -9.2773, -2.9297, -4.4250
1495063133.9999389648,1495063134.0022249222, -0.8440,  0.1384, -0.7554, -9.2773, -2.9297, -4.4250
1495063134.0022959709,1495063134.0048859119, -0.8440,  0.1384, -0.7554, -9.7198, -2.8229, -4.4250
1495063134.0049591064,1495063134.0073750019, -0.8440,  0.1384, -0.7554, -9.7198, -2.8229, -4.4250
1495063134.0074460506,1495063134.0097360611, -0.8440,  0.1384, -0.7554, -9.7198, -2.8229, -4.4250
1495063134.0098059177,1495063134.0120880604, -0.8440,  0.1384, -0.7554, -9.7198, -2.8229, -4.4250
1495063134.0121579170,1495063134.0144441128, -0.8457,  0.1494, -0.7512,-10.2234, -2.5635, -4.6692
1495063134.0145170689,1495063134.0167911053, -0.8457,  0.1494, -0.7512,-10.2234, -2.5635, -4.6692
1495063134.0168650150,1495063134.0191500187, -0.8457,  0.1494, -0.7512,-10.2234, -2.5635, -4.6692
1495063134.0192229748,1495063134.0215029716, -0.8457,  0.1494, -0.7512,-10.2234, -2.5635, -4.6692
1495063134.0215759277,1495063134.0238490105, -0.8457,  0.1494, -0.7512,-10.4218, -3.3264, -4.8828
1495063134.0239219666,1495063134.0262041092, -0.8457,  0.1494, -0.7512,-10.4218, -3.3264, -4.8828
1495063134.0262761116,1495063134.0285739899, -0.8457,  0.1494, -0.7512,-10.4218, -3.3264, -4.8828
1495063134.0286469460,1495063134.0309219360, -0.8457,  0.1494, -0.7512,-10.4218, -3.3264, -4.8828
1495063134.0309948921,1495063134.0332770348, -0.8457,  0.1494, -0.7512,-10.4218, -3.3264, -4.8828
1495063134.0333499908,1495063134.0356259346, -0.8484,  0.1504, -0.7712,-10.5438, -3.3875, -5.0049
1495063134.0356988907,1495063134.0380671024, -0.8484,  0.1504, -0.7712,-10.5438, -3.3875, -5.0049
1495063134.0382521152,1495063134.0405449867, -0.8484,  0.1504, -0.7712,-10.5438, -3.3875, -5.0049
1495063134.0406179428,1495063134.0428979397, -0.8484,  0.1504, -0.7712,-10.5438, -3.3875, -5.0049
1495063134.0429708958,1495063134.0452489853, -0.8484,  0.1504, -0.7712,-10.7117, -3.1433, -5.3558
1495063134.0453219414,1495063134.0477070808, -0.8484,  0.1504, -0.7712,-10.7117, -3.1433, -5.3558
1495063134.0477800369,1495063134.0500640869, -0.8484,  0.1504, -0.7712,-10.7117, -3.1433, -5.3558
1495063134.0501370430,1495063134.0524160862, -0.8484,  0.1504, -0.7712,-10.7117, -3.1433, -5.3558
1495063134.0524899960,1495063134.0547719002, -0.8416,  0.1597, -0.7507,-10.7117, -3.1433, -5.4932
1495063134.0548450947,1495063134.0572779179, -0.8416,  0.1597, -0.7507,-10.3302, -2.8992, -5.4932
1495063134.0573520660,1495063134.0596361160, -0.8416,  0.1597, -0.7507,-10.3302, -2.8992, -5.4932
1495063134.0597090721,1495063134.0619900227, -0.8416,  0.1597, -0.7507,-10.3302, -2.8992, -5.4932
1495063134.0620639324,1495063134.0643429756, -0.8416,  0.1597, -0.7507,-10.3302, -2.8992, -5.4932
1495063134.0644159317,1495063134.0666959286, -0.8416,  0.1597, -0.7507,-10.3302, -2.8076, -5.0964
1495063134.0667700768,1495063134.0691030025, -0.8416,  0.1597, -0.7507,-10.3302, -2.8076, -5.0964
1495063134.0691781044,1495063134.0714659691, -0.8416,  0.1597, -0.7507,-10.3302, -2.8076, -5.0964
1495063134.0715401173,1495063134.0738201141, -0.8416,  0.1597, -0.7542,-10.3302, -2.8076, -5.0964
1495063134.0738930702,1495063134.0761690140, -0.8396,  0.1572, -0.7542,-10.3302, -2.8076, -5.3711
1495063134.0762429237,1495063134.0785388947, -0.8396,  0.1572, -0.7542,-10.7574, -3.8147, -5.3711
1495063134.0786130428,1495063134.0808949471, -0.8396,  0.1572, -0.7542,-10.7574, -3.8147, -5.3711
1495063134.0809679031,1495063134.0832450390, -0.8396,  0.1572, -0.7542,-10.7574, -3.8147, -5.3711
1495063134.0833179951,1495063134.0855998993, -0.8396,  0.1572, -0.7542,-10.7574, -3.8147, -5.3711
1495063134.0856730938,1495063134.0879619122, -0.8396,  0.1572, -0.7542,-10.4218, -3.9978, -5.5389
1495063134.0880360603,1495063134.0903139114, -0.8396,  0.1572, -0.7542,-10.4218, -3.9978, -5.5389
1495063134.0903871059,1495063134.0926630497, -0.8396,  0.1572, -0.7542,-10.4218, -3.9978, -5.5389
1495063134.0927369595,1495063134.0950150490, -0.8401,  0.1631, -0.7603,-10.4218, -3.9978, -5.5389
1495063134.0950889587,1495063134.0974009037, -0.8401,  0.1631, -0.7603,-10.4218, -3.9978, -5.5389
1495063134.0974750519,1495063134.0997500420, -0.8401,  0.1631, -0.7603,-10.1166, -5.2795, -5.5389
1495063134.0998239517,1495063134.1020998955, -0.8401,  0.1631, -0.7603,-10.1166, -5.2795, -5.5389
1495063134.1021740437,1495063134.1044619083, -0.8401,  0.1631, -0.7603,-10.1166, -5.2795, -5.5389
1495063134.1045360565,1495063134.1070148945, -0.8401,  0.1631, -0.7603,-10.1166, -5.2795, -5.5389
1495063134.1070899963,1495063134.1093709469, -0.8401,  0.1631, -0.7603,-10.1624, -5.7068, -5.5695
1495063134.1094450951,1495063134.1117210388, -0.8401,  0.1631, -0.7603,-10.1624, -5.7068, -5.5695
1495063134.1117939949,1495063134.1142499447, -0.8401,  0.1467, -0.7600,-10.1624, -5.7068, -5.5695
1495063134.1143250465,1495063134.1166079044, -0.8411,  0.1467, -0.7600,-10.1624, -5.7068, -5.5695
1495063134.1166820526,1495063134.1198949814, -0.8411,  0.1467, -0.7600,-10.4523, -5.1422, -6.1493
1495063134.1199719906,1495063134.1222560406, -0.8411,  0.1467, -0.7600,-10.4523, -5.1422, -6.1493
1495063134.1223299503,1495063134.1246008873, -0.8411,  0.1467, -0.7600,-10.4523, -5.1422, -6.1493
1495063134.1246740818,1495063134.1269919872, -0.8411,  0.1467, -0.7600,-10.4523, -5.1422, -6.1493
1495063134.1270649433,1495063134.1293489933, -0.8411,  0.1467, -0.7600,-10.4523, -5.1880, -6.9427
1495063134.1294219494,1495063134.1317028999, -0.8411,  0.1467, -0.7600,-10.7422, -5.1880, -6.9427
1495063134.1317770481,1495063134.1340579987, -0.8411,  0.1467, -0.7488,-10.7422, -5.1880, -6.9427
1495063134.1341309547,1495063134.1364030838, -0.8433,  0.1553, -0.7488,-10.7422, -5.1880, -6.9427
1495063134.1365809441,1495063134.1389091015, -0.8433,  0.1553, -0.7488,-10.7422, -5.1880, -6.9427
1495063134.1389830112,1495063134.1412611008, -0.8433,  0.1553, -0.7488,-10.6201, -5.0049, -7.5684
1495063134.1413350105,1495063134.1436109543, -0.8433,  0.1553, -0.7488,-10.6201, -5.0049, -7.5684
1495063134.1436839104,1495063134.1459639072, -0.8433,  0.1553, -0.7488,-10.6201, -5.0049, -7.5684
1495063134.1460359097,1495063134.1483728886, -0.8433,  0.1553, -0.7488,-10.6201, -5.0049, -7.5684
1495063134.1484470367,1495063134.1507229805, -0.8433,  0.1553, -0.7488,-10.1166, -5.5695, -7.7209
1495063134.1507968903,1495063134.1530840397, -0.8433,  0.1553, -0.7488,-10.1166, -5.5695, -7.7209
1495063134.1531569958,1495063134.1554360390, -0.8389,  0.1636, -0.7598,-10.1166, -5.5695, -7.7209
1495063134.1555089951,1495063134.1577980518, -0.8389,  0.1636, -0.7598,-10.1166, -5.5695, -7.7209
1495063134.1578719616,1495063134.1601560116, -0.8389,  0.1636, -0.7598,-10.1166, -5.5695, -7.7209
1495063134.1602299213,1495063134.1625070572, -0.8389,  0.1636, -0.7598,-10.3455, -6.3629, -7.8125
1495063134.1625809669,1495063134.1648540497, -0.8389,  0.1636, -0.7598,-10.3455, -6.3629, -7.8125
1495063134.1649260521,1495063134.1673319340, -0.8389,  0.1636, -0.7598,-10.3455, -6.3629, -7.8125
1495063134.1674060822,1495063134.1696839333, -0.8389,  0.1636, -0.7598,-10.3455, -6.3629, -7.8125
1495063134.1697590351,1495063134.1720409393, -0.8389,  0.1636, -0.7598,-10.4218, -6.3934, -7.6904
1495063134.1721138954,1495063134.1743879318, -0.8389,  0.1655, -0.7600,-10.4218, -6.3934, -7.6904
1495063134.1744608879,1495063134.1767361164, -0.8447,  0.1655, -0.7600,-10.4218, -6.3934, -7.6904
1495063134.1768090725,1495063134.1791999340, -0.8447,  0.1655, -0.7600,-10.4218, -6.3934, -7.6904
1495063134.1792728901,1495063134.1815660000, -0.8447,  0.1655, -0.7600,-10.4218, -6.3934, -7.6752
1495063134.1816411018,1495063134.1839239597, -0.8447,  0.1655, -0.7600, -9.8877, -6.1798, -7.6752
1495063134.1839950085,1495063134.1862800121, -0.8447,  0.1655, -0.7600, -9.8877, -6.1798, -7.6752
1495063134.1863510609,1495063134.1887059212, -0.8447,  0.1655, -0.7600, -9.8877, -6.1798, -7.6752
1495063134.1887769699,1495063134.1910619736, -0.8447,  0.1655, -0.7600, -9.8877, -6.1798, -7.6752
1495063134.1911330223,1495063134.1934139729, -0.8447,  0.1655, -0.7600, -9.8572, -6.1951, -7.7057
1495063134.1934850216,1495063134.1957659721, -0.8474,  0.1792, -0.7595, -9.8572, -6.1951, -7.7057
1495063134.1958370209,1495063134.1983489990, -0.8474,  0.1792, -0.7595, -9.8572, -6.1951, -7.7057
1495063134.1984219551,1495063134.2007091045, -0.8474,  0.1792, -0.7595, -9.8572, -6.1951, -7.7057
1495063134.2007799149,1495063134.2042410374, -0.8474,  0.1792, -0.7595, -9.8572, -6.1951, -7.4615
1495063134.2043139935,1495063134.2065930367, -0.8474,  0.1792, -0.7595, -9.5825, -5.6305, -7.4615
1495063134.2066628933,1495063134.2091109753, -0.8474,  0.1792, -0.7595, -9.5825, -5.6305, -7.4615
1495063134.2091820240,1495063134.2114670277, -0.8474,  0.1792, -0.7595, -9.5825, -5.6305, -7.4615
1495063134.2115368843,1495063134.2138130665, -0.8474,  0.1792, -0.7595, -9.5825, -5.8594, -7.3395
1495063134.2138829231,1495063134.2172110081, -0.8484,  0.1863, -0.7710, -9.4147, -5.8594, -7.3395
1495063134.2172839642,1495063134.2195611000, -0.8484,  0.1863, -0.7710, -9.4147, -5.8594, -7.3395
1495063134.2196319103,1495063134.2219090462, -0.8484,  0.1863, -0.7710, -9.4147, -5.8594, -7.3395
1495063134.2219800949,1495063134.2242579460, -0.8484,  0.1863, -0.7710, -9.4147, -5.9357, -6.8359
1495063134.2243289948,1495063134.2266049385, -0.8484,  0.1863, -0.7710, -8.8959, -5.9357, -6.8359
1495063134.2266750336,1495063134.2289600372, -0.8484,  0.1863, -0.7710, -8.8959, -5.9357, -6.8359
1495063134.2290310860,1495063134.2313048840, -0.8484,  0.1863, -0.7710, -8.8959, -5.9357, -6.8359
1495063134.2313759327,1495063134.2336540222, -0.8484,  0.1863, -0.7710, -8.8959, -5.9357, -6.8359
1495063134.2337241173,1495063134.2360041142, -0.8528,  0.1802, -0.7664, -9.3231, -5.6458, -6.5765
1495063134.2360761166,1495063134.2384469509, -0.8528,  0.1802, -0.7664, -9.3231, -5.6458, -6.5765
1495063134.2386291027,1495063134.2409110069, -0.8528,  0.1802, -0.7664, -9.3231, -5.6458, -6.5765
1495063134.2409820557,1495063134.2432610989, -0.8528,  0.1802, -0.7664, -9.3231, -5.6458, -6.5765
1495063134.2433319092,1495063134.2456109524, -0.8528,  0.1802, -0.7664, -9.3231, -5.5847, -6.1951
1495063134.2456820011,1495063134.2479879856, -0.8528,  0.1802, -0.7664, -9.2316, -5.5847, -6.1951
1495063134.2480599880,1495063134.2503390312, -0.8528,  0.1802, -0.7664, -9.2316, -5.5847, -6.1951
1495063134.2504088879,1495063134.2526879311, -0.8528,  0.1802, -0.7664, -9.2316, -5.5847, -6.1951
1495063134.2527589798,1495063134.2550389767, -0.8545,  0.1782, -0.7668, -9.2316, -5.5847, -6.1951
1495063134.2551100254,1495063134.2574799061, -0.8545,  0.1782, -0.7668, -8.9722, -5.1880, -5.6763
1495063134.2575519085,1495063134.2598290443, -0.8545,  0.1782, -0.7668, -8.9722, -5.1880, -5.6763
1495063134.2599000931,1495063134.2621800900, -0.8545,  0.1782, -0.7668, -8.9722, -5.1880, -5.6763
1495063134.2622499466,1495063134.2645280361, -0.8545,  0.1782, -0.7668, -8.9722, -5.1880, -5.6763
1495063134.2645978928,1495063134.2668759823, -0.8545,  0.1782, -0.7668, -8.1940, -4.1809, -5.2795
1495063134.2671310902,1495063134.2694170475, -0.8545,  0.1782, -0.7668, -8.1940, -4.1809, -5.2795
1495063134.2694880962,1495063134.2717680931, -0.8545,  0.1782, -0.7668, -8.1940, -4.1809, -5.2795
1495063134.2718379498,1495063134.2741200924, -0.8545,  0.1782, -0.7610, -8.1940, -4.1809, -5.2795
1495063134.2741920948,1495063134.2764708996, -0.8630,  0.1838, -0.7610, -8.1940, -4.1809, -5.2795
1495063134.2765419483,1495063134.2788860798, -0.8630,  0.1838, -0.7610, -7.6141, -4.1046, -4.4098
1495063134.2789568901,1495063134.2812640667, -0.8630,  0.1838, -0.7610, -7.6141, -4.1046, -4.4098
1495063134.2813351154,1495063134.2836110592, -0.8630,  0.1838, -0.7610, -7.6141, -4.1046, -4.4098
1495063134.2836809158,1495063134.2859609127, -0.8630,  0.1838, -0.7610, -7.6141, -4.1046, -4.4098
1495063134.2860319614,1495063134.2883369923, -0.8630,  0.1838, -0.7610, -7.6752, -3.2806, -3.9978
1495063134.2884070873,1495063134.2906870842, -0.8630,  0.1838, -0.7610, -7.6752, -3.2806, -3.9978
1495063134.2907569408,1495063134.2930350304, -0.8630,  0.1838, -0.7610, -7.6752, -3.2806, -3.9978
1495063134.2931048870,1495063134.2953810692, -0.8669,  0.1812, -0.7815, -7.6752, -3.2806, -3.9978
1495063134.2954509258,1495063134.2977750301, -0.8669,  0.1812, -0.7815, -7.6752, -3.2806, -3.4485
1495063134.2978448868,1495063134.3001260757, -0.8669,  0.1812, -0.7815, -7.3395, -2.8839, -3.4485
1495063134.3001959324,1495063134.3024768829, -0.8669,  0.1812, -0.7815, -7.3395, -2.8839, -3.4485
1495063134.3025460243,1495063134.3048250675, -0.8669,  0.1812, -0.7815, -7.3395, -2.8839, -3.4485
1495063134.3048949242,1495063134.3073489666, -0.8669,  0.1812, -0.7815, -7.3395, -2.8839, -3.4485
1495063134.3074190617,1495063134.3097000122, -0.8669,  0.1812, -0.7815, -7.1411, -2.0599, -3.1738
1495063134.3097701073,1495063134.3120501041, -0.8669,  0.1812, -0.7815, -7.1411, -2.0599, -3.1738
1495063134.3121199608,1495063134.3143999577, -0.8669,  0.1812, -0.7737, -7.1411, -2.0599, -3.1738
1495063134.3144700527,1495063134.3167519569, -0.8611,  0.1848, -0.7737, -7.1411, -2.0599, -3.1738
1495063134.3168210983,1495063134.3192930222, -0.8611,  0.1848, -0.7737, -7.1411, -2.0599, -2.4872
1495063134.3193640709,1495063134.3216459751, -0.8611,  0.1848, -0.7737, -6.8207, -1.7700, -2.4872
1495063134.3217160702,1495063134.3241610527, -0.8611,  0.1848, -0.7737, -6.8207, -1.7700, -2.4872
1495063134.3242321014,1495063134.3265080452, -0.8611,  0.1848, -0.7737, -6.8207, -1.7700, -2.4872
1495063134.3265769482,1495063134.3305809498, -0.8611,  0.1848, -0.7737, -6.5460, -1.8005, -2.1362
1495063134.3306539059,1495063134.3329339027, -0.8611,  0.1848, -0.7737, -6.5460, -1.8005, -2.1362
1495063134.3330039978,1495063134.3352808952, -0.8589,  0.1719, -0.7732, -6.5460, -1.8005, -2.1362
1495063134.3353509903,1495063134.3376359940, -0.8589,  0.1719, -0.7732, -6.5460, -1.8005, -2.1362
1495063134.3377060890,1495063134.3399829865, -0.8589,  0.1719, -0.7732, -6.5460, -1.8005, -2.1362
1495063134.3401660919,1495063134.3424539566, -0.8589,  0.1719, -0.7732, -6.1951, -1.4496, -1.6479
1495063134.3425240517,1495063134.3448069096, -0.8589,  0.1719, -0.7732, -6.1951, -1.4496, -1.6479
1495063134.3448760509,1495063134.3472340107, -0.8589,  0.1719, -0.7732, -6.1951, -1.4496, -1.6479
1495063134.3473041058,1495063134.3495891094, -0.8589,  0.1719, -0.7732, -6.1951, -1.4496, -1.6479
1495063134.3496589661,1495063134.3519411087, -0.8589,  0.1719, -0.7732, -5.8289, -1.7548, -1.6632
1495063134.3520109653,1495063134.3542881012, -0.8589,  0.1719, -0.7639, -5.8289, -1.7548, -1.6632
1495063134.3543579578,1495063134.3566401005, -0.8604,  0.1748, -0.7639, -5.8289, -1.7548, -1.6632
1495063134.3567099571,1495063134.3589909077, -0.8604,  0.1748, -0.7639, -5.8289, -1.7548, -1.6632
1495063134.3590610027,1495063134.3613369465, -0.8604,  0.1748, -0.7639, -5.8289, -1.7548, -1.8158
1495063134.3614060879,1495063134.3636829853, -0.8604,  0.1748, -0.7639, -5.6305, -1.4191, -1.8158
1495063134.3637530804,1495063134.3660349846, -0.8604,  0.1748, -0.7639, -5.6305, -1.4191, -1.8158
1495063134.3661038876,1495063134.3683979511, -0.8604,  0.1748, -0.7639, -5.6305, -1.4191, -1.8158
1495063134.3684689999,1495063134.3707430363, -0.8604,  0.1748, -0.7639, -5.6305, -1.4191, -1.8158
1495063134.3708128929,1495063134.3730869293, -0.8604,  0.1748, -0.7639, -5.7526, -0.9918, -1.4191
1495063134.3731570244,1495063134.3754379749, -0.8608,  0.1787, -0.7561, -5.7526, -0.9918, -1.4191
1495063134.3755080700,1495063134.3779470921, -0.8608,  0.1787, -0.7561, -5.7526, -0.9918, -1.4191
1495063134.3780179024,1495063134.3803079128, -0.8608,  0.1787, -0.7561, -5.7526, -0.9918, -1.4191
1495063134.3803789616,1495063134.3826620579, -0.8608,  0.1787, -0.7561, -5.7526, -0.9918, -1.5106
1495063134.3827319145,1495063134.3850119114, -0.8608,  0.1787, -0.7561, -6.1340, -0.7935, -1.5106
1495063134.3850820065,1495063134.3875460625, -0.8608,  0.1787, -0.7561, -6.1340, -0.7935, -1.5106
1495063134.3876171112,1495063134.3898949623, -0.8608,  0.1787, -0.7561, -6.1340, -0.7935, -1.5106
1495063134.3899650574,1495063134.3922469616, -0.8608,  0.1787, -0.7561, -6.1340, -0.7935, -1.5106
1495063134.3923170567,1495063134.3945960999, -0.8608,  0.1787, -0.7397, -5.3253, -0.3967, -1.5564
1495063134.3946659565,1495063134.3970010281, -0.8569,  0.1846, -0.7397, -5.3253, -0.3967, -1.5564
1495063134.3970708847,1495063134.3993549347, -0.8569,  0.1846, -0.7397, -5.3253, -0.3967, -1.5564
1495063134.3994250298,1495063134.4017069340, -0.8569,  0.1846, -0.7397, -5.3253, -0.3967, -1.5564
1495063134.4017770290,1495063134.4040570259, -0.8569,  0.1846, -0.7397, -5.3253, -0.6409, -1.2054
1495063134.4041268826,1495063134.4064149857, -0.8569,  0.1846, -0.7397, -5.2948, -0.6409, -1.2054
1495063134.4064860344,1495063134.4087719917, -0.8569,  0.1846, -0.7397, -5.2948, -0.6409, -1.2054
1495063134.4088430405,1495063134.4111170769, -0.8569,  0.1846, -0.7397, -5.2948, -0.6409, -1.2054
1495063134.4111878872,1495063134.4134678841, -0.8569,  0.1846, -0.7397, -5.2948, -0.6409, -1.2054
1495063134.4135389328,1495063134.4158110619, -0.8645,  0.1890, -0.7446, -5.5695, -0.2899, -1.1597
1495063134.4158821106,1495063134.4181718826, -0.8645,  0.1890, -0.7446, -5.5695, -0.2899, -1.1597
1495063134.4182429314,1495063134.4205238819, -0.8645,  0.1890, -0.7446, -5.5695, -0.2899, -1.1597
1495063134.4205949306,1495063134.4228720665, -0.8645,  0.1890, -0.7446, -5.5695, -0.2899, -1.1597
1495063134.4229431152,1495063134.4252281189, -0.8645,  0.1890, -0.7446, -5.5695, -0.3204, -0.9155
1495063134.4252989292,1495063134.4277141094, -0.8645,  0.1890, -0.7446, -5.6763, -0.3204, -0.9155
1495063134.4277861118,1495063134.4300699234, -0.8645,  0.1890, -0.7446, -5.6763, -0.3204, -0.9155
1495063134.4301419258,1495063134.4324319363, -0.8645,  0.1890, -0.7446, -5.6763, -0.3204, -0.9155
1495063134.4325029850,1495063134.4347870350, -0.8645,  0.1812, -0.7534, -5.6763, -0.3204, -0.9155
1495063134.4348580837,1495063134.4372010231, -0.8699,  0.1812, -0.7534, -5.7983, -0.0763, -0.8545
1495063134.4372739792,1495063134.4395549297, -0.8699,  0.1812, -0.7534, -5.7983, -0.0763, -0.8545
1495063134.4397339821,1495063134.4420180321, -0.8699,  0.1812, -0.7534, -5.7983, -0.0763, -0.8545
1495063134.4420900345,1495063134.4445030689, -0.8699,  0.1812, -0.7534, -5.7983, -0.0763, -0.8545
1495063134.4445750713,1495063134.4468610287, -0.8699,  0.1812, -0.7534, -5.6000,  0.6409, -1.1749
1495063134.4469890594,1495063134.4493970871, -0.8699,  0.1812, -0.7534, -5.6000,  0.6409, -1.1749
1495063134.4494678974,1495063134.4518749714, -0.8699,  0.1812, -0.7534, -5.6000,  0.6409, -1.1749
1495063134.4519469738,1495063134.4543519020, -0.8699,  0.1812, -0.7534, -5.6000,  0.6409, -1.1749
1495063134.4544239044,1495063134.4568309784, -0.8604,  0.1687, -0.7585, -5.6000,  0.6409, -1.4954
1495063134.4569029808,1495063134.4593079090, -0.8604,  0.1687, -0.7585, -5.1422,  0.8087, -1.4954
1495063134.4593789577,1495063134.4617819786, -0.8604,  0.1687, -0.7585, -5.1422,  0.8087, -1.4954
1495063134.4618520737,1495063134.4642539024, -0.8604,  0.1687, -0.7585, -5.1422,  0.8087, -1.4954
1495063134.4643249512,1495063134.4667301178, -0.8604,  0.1687, -0.7585, -5.1422,  0.8087, -1.4954
1495063134.4668009281,1495063134.4692211151, -0.8604,  0.1687, -0.7585, -4.8676,  0.8392, -2.1973
1495063134.4692919254,1495063134.4716908932, -0.8604,  0.1687, -0.7585, -4.8676,  0.8392, -2.1973
1495063134.4717619419,1495063134.4741630554, -0.8604,  0.1687, -0.7585, -4.8676,  0.8392, -2.1973
1495063134.4742329121,1495063134.4766380787, -0.8472,  0.1628, -0.7727, -4.8676,  0.8392, -2.1973
1495063134.4767088890,1495063134.4790439606, -0.8472,  0.1628, -0.7727, -4.2267,  1.1597, -2.7008
1495063134.4791150093,1495063134.4813990593, -0.8472,  0.1628, -0.7727, -4.2267,  1.1597, -2.7008
1495063134.4814701080,1495063134.4837489128, -0.8472,  0.1628, -0.7727, -4.2267,  1.1597, -2.7008
1495063134.4838180542,1495063134.4861009121, -0.8472,  0.1628, -0.7727, -4.2267,  1.1597, -2.7008
1495063134.4861719608,1495063134.4886128902, -0.8472,  0.1628, -0.7727, -4.2267,  1.0071, -2.5330
1495063134.4886839390,1495063134.4909660816, -0.8472,  0.1628, -0.7727, -3.6011,  1.0071, -2.5330
1495063134.4910368919,1495063134.4933180809, -0.8472,  0.1628, -0.7727, -3.6011,  1.0071, -2.5330
1495063134.4933879375,1495063134.4956688881, -0.8391,  0.1689, -0.7617, -3.6011,  1.0071, -2.5330
1495063134.4957399368,1495063134.4981598854, -0.8391,  0.1689, -0.7617, -3.6011,  1.0071, -2.5330
1495063134.4982318878,1495063134.5006330013, -0.8391,  0.1689, -0.7617, -2.9144,  1.0071, -3.2196
1495063134.5007030964,1495063134.5031070709, -0.8391,  0.1689, -0.7617, -2.9144,  1.0071, -3.2196
1495063134.5031769276,1495063134.5055789948, -0.8391,  0.1689, -0.7617, -2.9144,  1.0071, -3.2196
1495063134.5056500435,1495063134.5082809925, -0.8391,  0.1689, -0.7617, -2.9144,  1.0071, -3.2196
1495063134.5083520412,1495063134.5106348991, -0.8391,  0.1689, -0.7617, -1.6937,  1.5717, -3.6469
1495063134.5107040405,1495063134.5131080151, -0.8391,  0.1689, -0.7617, -1.6937,  1.5717, -3.6469
1495063134.5131781101,1495063134.5154609680, -0.8320,  0.1621, -0.7795, -1.6937,  1.5717, -3.6469
1495063134.5155320168,1495063134.5187370777, -0.8320,  0.1621, -0.7795, -1.6937,  1.5717, -3.6469
1495063134.5188100338,1495063134.5210928917, -0.8320,  0.1621, -0.7795, -1.4191,  1.6022, -3.8757
1495063134.5211629868,1495063134.5234398842, -0.8320,  0.1621, -0.7795, -1.4191,  1.6022, -3.8757
1495063134.5235099792,1495063134.5257880688, -0.8320,  0.1621, -0.7795, -1.4191,  1.6022, -3.8757
1495063134.5258579254,1495063134.5281779766, -0.8320,  0.1621, -0.7795, -1.4191,  1.6022, -3.8757
1495063134.5282480717,1495063134.5305271149, -0.8320,  0.1621, -0.7795, -1.4191,  1.6022, -4.1656
1495063134.5305960178,1495063134.5328741074, -0.8320,  0.1621, -0.7795, -1.1292,  1.7853, -4.1656
1495063134.5329439640,1495063134.5352230072, -0.8320,  0.1665, -0.7866, -1.1292,  1.7853, -4.1656
1495063134.5352940559,1495063134.5375900269, -0.8242,  0.1665, -0.7866, -1.1292,  1.7853, -4.1656
1495063134.5376598835,1495063134.5399401188, -0.8242,  0.1665, -0.7866, -1.1292,  1.7853, -4.1656
1495063134.5400099754,1495063134.5422849655, -0.8242,  0.1665, -0.7866, -1.3123,  1.6632, -3.7079
1495063134.5424649715,1495063134.5447471142, -0.8242,  0.1665, -0.7866, -1.3123,  1.6632, -3.7079
1495063134.5448169708,1495063134.5471410751, -0.8242,  0.1665, -0.7866, -1.3123,  1.6632, -3.7079
1495063134.5472109318,1495063134.5494909286, -0.8242,  0.1665, -0.7866, -1.3123,  1.6632, -3.7079
1495063134.5495610237,1495063134.5518400669, -0.8242,  0.1665, -0.7866, -1.3123,  1.6632, -4.0588
1495063134.5519089699,1495063134.5541958809, -0.8242,  0.1665, -0.7866, -1.5869,  2.0294, -4.0588
1495063134.5542659760,1495063134.5565431118, -0.8301,  0.1636, -0.7886, -1.5869,  2.0294, -4.0588
1495063134.5566129684,1495063134.5589120388, -0.8301,  0.1636, -0.7886, -1.5869,  2.0294, -4.0588
1495063134.5589818954,1495063134.5612630844, -0.8301,  0.1636, -0.7886, -1.5869,  2.0294, -4.0588
1495063134.5613329411,1495063134.5636150837, -0.8301,  0.1636, -0.7886, -1.6327,  2.1820, -3.9520
1495063134.5636858940,1495063134.5659630299, -0.8301,  0.1636, -0.7886, -1.6327,  2.1820, -3.9520
1495063134.5660328865,1495063134.5684618950, -0.8301,  0.1636, -0.7886, -1.6327,  2.1820, -3.9520
1495063134.5685329437,1495063134.5708189011, -0.8301,  0.1636, -0.7886, -1.6327,  2.1820, -3.9520
1495063134.5708889961,1495063134.5731821060, -0.8301,  0.1636, -0.7886, -1.6327,  1.9684, -4.2877
1495063134.5732519627,1495063134.5755360126, -0.8301,  0.1667, -0.7808, -2.1973,  1.9684, -4.2877
1495063134.5756049156,1495063134.5780611038, -0.8313,  0.1667, -0.7808, -2.1973,  1.9684, -4.2877
1495063134.5781319141,1495063134.5804159641, -0.8313,  0.1667, -0.7808, -2.1973,  1.9684, -4.2877
1495063134.5804860592,1495063134.5827639103, -0.8313,  0.1667, -0.7808, -2.1973,  1.9684, -4.2877
1495063134.5828340054,1495063134.5851221085, -0.8313,  0.1667, -0.7808, -1.9226,  1.5106, -4.8981
1495063134.5851929188,1495063134.5875151157, -0.8313,  0.1667, -0.7808, -1.9226,  1.5106, -4.8981
1495063134.5875859261,1495063134.5899930000, -0.8313,  0.1667, -0.7808, -1.9226,  1.5106, -4.8981
1495063134.5900640488,1495063134.5924739838, -0.8313,  0.1667, -0.7808, -1.9226,  1.5106, -4.8981
1495063134.5925440788,1495063134.5949499607, -0.8313,  0.1667, -0.7678, -2.7618,  1.0071, -4.4098
1495063134.5950191021,1495063134.5974440575, -0.8308,  0.1555, -0.7678, -2.7618,  1.0071, -4.4098
1495063134.5975139141,1495063134.5999219418, -0.8308,  0.1555, -0.7678, -2.7618,  1.0071, -4.4098
1495063134.5999920368,1495063134.6023941040, -0.8308,  0.1555, -0.7678, -2.7618,  1.0071, -4.4098
1495063134.6024649143,1495063134.6050169468, -0.8308,  0.1555, -0.7678, -2.7618,  1.3885, -4.9896
1495063134.6050870419,1495063134.6075398922, -0.8308,  0.1555, -0.7678, -3.8147,  1.3885, -4.9896
1495063134.6076109409,1495063134.6099770069, -0.8308,  0.1555, -0.7678, -3.8147,  1.3885, -4.9896
1495063134.6100471020,1495063134.6124150753, -0.8308,  0.1555, -0.7678, -3.8147,  1.3885, -4.9896
1495063134.6124849319,1495063134.6151509285, -0.8308,  0.1555, -0.7681, -3.8147,  1.3885, -4.9438
1495063134.6152229309,1495063134.6175780296, -0.8215,  0.1523, -0.7681, -4.4861,  0.5798, -4.9438
1495063134.6176490784,1495063134.6199259758, -0.8215,  0.1523, -0.7681, -4.4861,  0.5798, -4.9438
1495063134.6199970245,1495063134.6222720146, -0.8215,  0.1523, -0.7681, -4.4861,  0.5798, -4.9438
1495063134.6223430634,1495063134.6246209145, -0.8215,  0.1523, -0.7681, -4.4861,  0.5798, -4.9438
1495063134.6246929169,1495063134.6270139217, -0.8215,  0.1523, -0.7681, -4.6234,  0.3510, -5.0964
1495063134.6270849705,1495063134.6293609142, -0.8215,  0.1523, -0.7681, -4.6234,  0.3510, -5.0964
1495063134.6294319630,1495063134.6317090988, -0.8215,  0.1523, -0.7681, -4.6234,  0.3510, -5.0964
1495063134.6317799091,1495063134.6340579987, -0.8215,  0.1523, -0.7681, -4.6234,  0.3510, -5.0964
1495063134.6341290474,1495063134.6364099979, -0.8257,  0.1479, -0.7795, -4.6234,  0.3510, -5.3253
1495063134.6364810467,1495063134.6387660503, -0.8257,  0.1479, -0.7795, -5.3253,  0.5951, -5.3253
1495063134.6388370991,1495063134.6411149502, -0.8257,  0.1479, -0.7795, -5.3253,  0.5951, -5.3253
1495063134.6412999630,1495063134.6435880661, -0.8257,  0.1479, -0.7795, -5.3253,  0.5951, -5.3253
1495063134.6436591148,1495063134.6459410191, -0.8257,  0.1479, -0.7795, -5.3253,  0.5951, -5.3253
1495063134.6460120678,1495063134.6483321190, -0.8257,  0.1479, -0.7795, -5.6458,  0.3204, -5.8594
1495063134.6484029293,1495063134.6506810188, -0.8257,  0.1479, -0.7795, -5.6458,  0.3204, -5.8594
1495063134.6507511139,1495063134.6530289650, -0.8257,  0.1479, -0.7795, -5.6458,  0.3204, -5.8594
1495063134.6530990601,1495063134.6553719044, -0.8257,  0.1499, -0.7664, -5.6458,  0.3204, -5.8594
1495063134.6554429531,1495063134.6578838825, -0.8308,  0.1499, -0.7664, -5.6458, -0.3662, -6.0425
1495063134.6579539776,1495063134.6602389812, -0.8308,  0.1499, -0.7664, -5.8594, -0.3662, -6.0425
1495063134.6603090763,1495063134.6625950336, -0.8308,  0.1499, -0.7664, -5.8594, -0.3662, -6.0425
1495063134.6626648903,1495063134.6649439335, -0.8308,  0.1499, -0.7664, -5.8594, -0.3662, -6.0425
1495063134.6650140285,1495063134.6674489975, -0.8308,  0.1499, -0.7664, -5.8594, -0.3662, -6.0425
1495063134.6675200462,1495063134.6698050499, -0.8308,  0.1499, -0.7664, -6.4545, -0.8392, -6.0883
1495063134.6698749065,1495063134.6721539497, -0.8308,  0.1499, -0.7664, -6.4545, -0.8392, -6.0883
1495063134.6722249985,1495063134.6745090485, -0.8308,  0.1499, -0.7664, -6.4545, -0.8392, -6.0883
1495063134.6745800972,1495063134.6768620014, -0.8284,  0.1497, -0.7517, -6.4545, -0.8392, -6.0883
1495063134.6770029068,1495063134.6792850494, -0.8284,  0.1497, -0.7517, -6.7749, -1.3885, -6.1493
1495063134.6793560982,1495063134.6816349030, -0.8284,  0.1497, -0.7517, -6.7749, -1.3885, -6.1493
1495063134.6817049980,1495063134.6839780807, -0.8284,  0.1497, -0.7517, -6.7749, -1.3885, -6.1493
1495063134.6840479374,1495063134.6863238811, -0.8284,  0.1497, -0.7517, -6.7749, -1.3885, -6.1493
1495063134.6863939762,1495063134.6887431145, -0.8284,  0.1497, -0.7517, -6.7749, -1.3885, -6.1493
1495063134.6888139248,1495063134.6910870075, -0.8284,  0.1497, -0.7517, -7.1869, -1.7395, -6.1340
1495063134.6911571026,1495063134.6934340000, -0.8284,  0.1497, -0.7517, -7.1869, -1.7395, -6.1340
1495063134.6935040951,1495063134.6957819462, -0.8284,  0.1541, -0.7581, -7.1869, -1.7395, -6.1340
1495063134.6958520412,1495063134.6981499195, -0.8303,  0.1541, -0.7581, -7.1869, -1.7395, -6.1340
1495063134.6982200146,1495063134.7005031109, -0.8303,  0.1541, -0.7581, -7.7362, -2.2278, -6.5308
1495063134.7005729675,1495063134.7028460503, -0.8303,  0.1541, -0.7581, -7.7362, -2.2278, -6.5308
1495063134.7029159069,1495063134.7051939964, -0.8303,  0.1541, -0.7581, -7.7362, -2.2278, -6.5308
1495063134.7052650452,1495063134.7078869343, -0.8303,  0.1541, -0.7581, -7.7362, -2.2278, -6.5308
1495063134.7079579830,1495063134.7102410793, -0.8303,  0.1541, -0.7581, -7.7362, -2.2278, -6.8970
1495063134.7103109360,1495063134.7138690948, -0.8303,  0.1541, -0.7581, -8.7280, -2.9297, -6.8970
1495063134.7139439583,1495063134.7162289619, -0.8384,  0.1584, -0.7493, -8.7280, -2.9297, -6.8970
1495063134.7163000107,1495063134.7186748981, -0.8384,  0.1584, -0.7493, -8.7280, -2.9297, -6.8970
1495063134.7187459469,1495063134.7210240364, -0.8384,  0.1584, -0.7493, -8.7280, -2.9297, -7.0038
1495063134.7210950851,1495063134.7233779430, -0.8384,  0.1584, -0.7493, -9.4757, -3.4332, -7.0038
1495063134.7234480381,1495063134.7257320881, -0.8384,  0.1584, -0.7493, -9.4757, -3.4332, -7.0038
1495063134.7258028984,1495063134.7281339169, -0.8384,  0.1584, -0.7493, -9.4757, -3.4332, -7.0038
1495063134.7282040119,1495063134.7304830551, -0.8384,  0.1584, -0.7493, -9.4757, -3.4332, -7.0038
1495063134.7305541039,1495063134.7328290939, -0.8384,  0.1584, -0.7493, -9.6588, -3.8910, -7.3700
1495063134.7328999043,1495063134.7351760864, -0.8384,  0.1584, -0.7520, -9.6588, -3.8910, -7.3700
1495063134.7352468967,1495063134.7375710011, -0.8389,  0.1663, -0.7520, -9.6588, -3.8910, -7.3700
1495063134.7376420498,1495063134.7399230003, -0.8389,  0.1663, -0.7520, -9.6588, -3.8910, -7.3700
1495063134.7399940491,1495063134.7422749996, -0.8389,  0.1663, -0.7520, -9.6588, -4.4708, -7.1411
1495063134.7424559593,1495063134.7447359562, -0.8389,  0.1663, -0.7520, -9.9792, -4.4708, -7.1411
1495063134.7448060513,1495063134.7470879555, -0.8389,  0.1663, -0.7520, -9.9792, -4.4708, -7.1411
1495063134.7471590042,1495063134.7494359016, -0.8389,  0.1663, -0.7520, -9.9792, -4.4708, -7.1411
1495063134.7495059967,1495063134.7517809868, -0.8389,  0.1663, -0.7520, -9.9792, -4.4708, -7.1411
1495063134.7518520355,1495063134.7541279793, -0.8389,  0.1663, -0.7520,-10.5438, -4.9133, -7.1564
1495063134.7542018890,1495063134.7564790249, -0.8413,  0.1724, -0.7561,-10.5438, -4.9133, -7.1564
1495063134.7565519810,1495063134.7589890957, -0.8413,  0.1724, -0.7561,-10.5438, -4.9133, -7.1564
1495063134.7590620518,1495063134.7613348961, -0.8413,  0.1724, -0.7561,-10.5438, -4.9133, -7.1564
1495063134.7614080906,1495063134.7636859417, -0.8413,  0.1724, -0.7561,-10.5438, -5.7526, -7.0496
1495063134.7637588978,1495063134.7660369873, -0.8413,  0.1724, -0.7561,-10.8643, -5.7526, -7.0496
1495063134.7661108971,1495063134.7685470581, -0.8413,  0.1724, -0.7561,-10.8643, -5.7526, -7.0496
1495063134.7686209679,1495063134.7709009647, -0.8413,  0.1724, -0.7561,-10.8643, -5.7526, -7.0496
1495063134.7709739208,1495063134.7732551098, -0.8413,  0.1724, -0.7561,-10.8643, -5.7526, -7.0496
1495063134.7733271122,1495063134.7756071091, -0.8413,  0.1724, -0.7615,-11.4594, -6.0730, -6.5765
1495063134.7756819725,1495063134.7779760361, -0.8406,  0.1733, -0.7615,-11.4594, -6.0730, -6.5765
1495063134.7780508995,1495063134.7803280354, -0.8406,  0.1733, -0.7615,-11.4594, -6.0730, -6.5765
1495063134.7804019451,1495063134.7826840878, -0.8406,  0.1733, -0.7615,-11.4594, -6.0730, -6.5765
1495063134.7827570438,1495063134.7850320339, -0.8406,  0.1733, -0.7615,-11.4594, -6.1646, -6.0425
1495063134.7851049900,1495063134.7874460220, -0.8406,  0.1733, -0.7615,-11.4594, -6.1646, -6.0425
1495063134.7875199318,1495063134.7899250984, -0.8406,  0.1733, -0.7615,-11.4594, -6.1646, -6.0425
1495063134.7899980545,1495063134.7923998833, -0.8406,  0.1733, -0.7615,-11.4594, -6.1646, -6.0425
1495063134.7924740314,1495063134.7948830128, -0.8406,  0.1733, -0.7615,-11.4594, -6.1646, -6.1035
1495063134.7949569225,1495063134.7973570824, -0.8372,  0.1787, -0.7754,-11.5204, -6.7139, -6.1035
1495063134.7974300385,1495063134.7997119427, -0.8372,  0.1787, -0.7754,-11.5204, -6.7139, -6.1035
1495063134.7997860909,1495063134.8020699024, -0.8372,  0.1787, -0.7754,-11.5204, -6.7139, -6.1035
1495063134.8021440506,1495063134.8044250011, -0.8372,  0.1787, -0.7754,-11.5204, -6.7139, -6.1035
1495063134.8044979572,1495063134.8067829609, -0.8372,  0.1787, -0.7754,-11.1542, -6.6376, -5.8594
1495063134.8068571091,1495063134.8092648983, -0.8372,  0.1787, -0.7754,-11.1542, -6.6376, -5.8594
1495063134.8093481064,1495063134.8116331100, -0.8372,  0.1787, -0.7754,-11.1542, -6.6376, -5.8594
1495063134.8117070198,1495063134.8139889240, -0.8372,  0.1787, -0.7754,-11.1542, -6.6376, -5.8594
1495063134.8140621185,1495063134.8163399696, -0.8340,  0.1755, -0.7747,-11.1542, -6.8054, -5.6458
1495063134.8164129257,1495063134.8187689781, -0.8340,  0.1755, -0.7747,-10.0098, -6.8054, -5.6458
1495063134.8188428879,1495063134.8211259842, -0.8340,  0.1755, -0.7747,-10.0098, -6.8054, -5.6458
1495063134.8211989403,1495063134.8235719204, -0.8340,  0.1755, -0.7747,-10.0098, -6.8054, -5.6458
1495063134.8236460686,1495063134.8259398937, -0.8340,  0.1755, -0.7747,-10.0098, -6.8054, -5.6458
1495063134.8260149956,1495063134.8293440342, -0.8340,  0.1755, -0.7747, -9.6588, -6.7139, -5.1880
1495063134.8294188976,1495063134.8317010403, -0.8340,  0.1755, -0.7747, -9.6588, -6.7139, -5.1880
1495063134.8317730427,1495063134.8340520859, -0.8340,  0.1755, -0.7747, -9.6588, -6.7139, -5.1880
1495063134.8341228962,1495063134.8364000320, -0.8428,  0.1865, -0.7766, -9.6588, -6.7139, -5.1880
1495063134.8364698887,1495063134.8387548923, -0.8428,  0.1865, -0.7766, -9.7046, -5.9204, -4.8828
1495063134.8388259411,1495063134.8411068916, -0.8428,  0.1865, -0.7766, -9.7046, -5.9204, -4.8828
1495063134.8411779404,1495063134.8434588909, -0.8428,  0.1865, -0.7766, -9.7046, -5.9204, -4.8828
1495063134.8436429501,1495063134.8459270000, -0.8428,  0.1865, -0.7766, -9.7046, -5.9204, -4.8828
1495063134.8459980488,1495063134.8483200073, -0.8428,  0.1865, -0.7766, -9.5673, -6.2256, -4.8370
1495063134.8483901024,1495063134.8506720066, -0.8428,  0.1865, -0.7766, -9.5673, -6.2256, -4.8370
1495063134.8507421017,1495063134.8530199528, -0.8428,  0.1865, -0.7766, -9.5673, -6.2256, -4.8370
1495063134.8530910015,1495063134.8553690910, -0.8428,  0.1865, -0.7766, -9.5673, -6.2256, -4.8370
1495063134.8554379940,1495063134.8577909470, -0.8403,  0.1855, -0.7666, -9.5673, -6.2256, -4.8370
1495063134.8578629494,1495063134.8601419926, -0.8403,  0.1855, -0.7666, -9.6893, -5.7068, -4.7302
1495063134.8602130413,1495063134.8624930382, -0.8403,  0.1855, -0.7666, -9.6893, -5.7068, -4.7302
1495063134.8625640869,1495063134.8648419380, -0.8403,  0.1855, -0.7666, -9.6893, -5.7068, -4.7302
1495063134.8649129868,1495063134.8672111034, -0.8403,  0.1855, -0.7666, -9.6893, -5.7068, -4.7302
1495063134.8672819138,1495063134.8695580959, -0.8403,  0.1855, -0.7666, -9.1095, -5.5847, -4.2572
1495063134.8696279526,1495063134.8719038963, -0.8403,  0.1855, -0.7666, -9.1095, -5.5847, -4.2572
1495063134.8719749451,1495063134.8742499352, -0.8403,  0.1855, -0.7666, -9.1095, -5.5847, -4.2572
1495063134.8743200302,1495063134.8765909672, -0.8359,  0.1895, -0.7722, -9.1095, -5.5847, -4.2572
1495063134.8766610622,1495063134.8790431023, -0.8359,  0.1895, -0.7722, -9.1095, -5.5847, -4.2572
1495063134.8791151047,1495063134.8813910484, -0.8359,  0.1895, -0.7722, -9.3994, -5.2032, -3.9673
1495063134.8814620972,1495063134.8837420940, -0.8359,  0.1895, -0.7722, -9.3994, -5.2032, -3.9673
1495063134.8838129044,1495063134.8860909939, -0.8359,  0.1895, -0.7722, -9.3994, -5.2032, -3.9673
1495063134.8861610889,1495063134.8886029720, -0.8359,  0.1895, -0.7722, -9.3994, -5.2032, -3.9673
1495063134.8886730671,1495063134.8909530640, -0.8359,  0.1895, -0.7722, -9.0790, -5.2032, -3.8300
1495063134.8910229206,1495063134.8933029175, -0.8359,  0.1895, -0.7722, -9.0790, -5.2032, -3.8300
1495063134.8933749199,1495063134.8956539631, -0.8359,  0.1895, -0.7812, -9.0790, -5.2032, -3.8300
1495063134.8957240582,1495063134.8980770111, -0.8379,  0.1914, -0.7812, -9.0790, -5.2032, -3.8300
1495063134.8981490135,1495063134.9005570412, -0.8379,  0.1914, -0.7812, -9.0790, -5.2032, -3.7231
1495063134.9006280899,1495063134.9030349255, -0.8379,  0.1914, -0.7812, -8.7891, -5.0201, -3.7231
1495063134.9031059742,1495063134.9055140018, -0.8379,  0.1914, -0.7812, -8.7891, -5.0201, -3.7231
1495063134.9055860043,1495063134.9079999924, -0.8379,  0.1914, -0.7812, -8.7891, -5.0201, -3.7231
1495063134.9080710411,1495063134.9104809761, -0.8379,  0.1914, -0.7812, -8.7891, -5.0201, -3.7231
1495063134.9105529785,1495063134.9129979610, -0.8379,  0.1914, -0.7812, -8.3313, -4.6844, -3.3722
1495063134.9130699635,1495063134.9153521061, -0.8379,  0.1914, -0.7812, -8.3313, -4.6844, -3.3722
1495063134.9154229164,1495063134.9178819656, -0.8425,  0.1873, -0.7795, -8.3313, -4.6844, -3.3722
1495063134.9179530144,1495063134.9202330112, -0.8425,  0.1873, -0.7795, -8.3313, -4.6844, -3.3722
1495063134.9203031063,1495063134.9225869179, -0.8425,  0.1873, -0.7795, -8.1635, -4.2114, -3.2501
1495063134.9239909649,1495063134.9262769222, -0.8425,  0.1873, -0.7795, -8.1635, -4.2114, -3.2501
1495063134.9263489246,1495063134.9287090302, -0.8425,  0.1873, -0.7795, -8.1635, -4.2114, -3.2501
1495063134.9299299717,1495063134.9322121143, -0.8425,  0.1873, -0.7795, -8.1635, -4.2114, -2.8381
1495063134.9322829247,1495063134.9345610142, -0.8425,  0.1873, -0.7795, -7.8430, -3.7231, -2.8381
1495063134.9346311092,1495063134.9369130135, -0.8342,  0.1890, -0.7678, -7.8430, -3.7231, -2.8381
1495063134.9370360374,1495063134.9393129349, -0.8342,  0.1890, -0.7678, -7.8430, -3.7231, -2.8381
1495063134.9393830299,1495063134.9416639805, -0.8342,  0.1890, -0.7678, -7.8430, -3.7231, -2.8381
1495063134.9417340755,1495063134.9440140724, -0.8342,  0.1890, -0.7678, -7.6752, -3.1433, -2.7313
1495063134.9440829754,1495063134.9463639259, -0.8342,  0.1890, -0.7678, -7.6752, -3.1433, -2.7313
1495063134.9465489388,1495063134.9488759041, -0.8342,  0.1890, -0.7678, -7.6752, -3.1433, -2.7313
1495063134.9489459991,1495063134.9512269497, -0.8342,  0.1890, -0.7678, -7.6752, -3.1433, -2.7313
1495063134.9512970448,1495063134.9535839558, -0.8342,  0.1890, -0.7678, -7.6752, -3.1433, -2.6093
1495063134.9536530972,1495063134.9559290409, -0.8342,  0.1890, -0.7864, -7.5378, -3.3875, -2.6093
1495063134.9559988976,1495063134.9583179951, -0.8401,  0.1875, -0.7864, -7.5378, -3.3875, -2.6093
1495063134.9583880901,1495063134.9606719017, -0.8401,  0.1875, -0.7864, -7.5378, -3.3875, -2.6093
1495063134.9607429504,1495063134.9630250931, -0.8401,  0.1875, -0.7864, -7.5378, -3.3875, -2.6093
1495063134.9630939960,1495063134.9653749466, -0.8401,  0.1875, -0.7864, -7.9041, -2.6245, -2.7313
1495063134.9654450417,1495063134.9678180218, -0.8401,  0.1875, -0.7864, -7.9041, -2.6245, -2.7313
1495063134.9678890705,1495063134.9701631069, -0.8401,  0.1875, -0.7864, -7.9041, -2.6245, -2.7313
1495063134.9702339172,1495063134.9725160599, -0.8401,  0.1875, -0.7864, -7.9041, -2.6245, -2.7313
