timestamp_before,timestamp_after,accel_x,accel_y,accel_z,gyro_x,gyro_y,gryo_z
1495414539.0224070549,1495414539.0247700214,  0.0869, -0.9297, -0.2429,-15.5334, -4.3640,-10.0403
1495414539.0248630047,1495414539.0272920132,  0.0369, -0.9121, -0.1958,-15.5334, -4.3640,-17.8528
1495414539.0273709297,1495414539.0296549797,  0.0369, -0.9121, -0.1958,-38.5437,-18.3105,-19.1956
1495414539.0297350883,1495414539.0323739052,  0.0369, -0.9121, -0.1958,-38.5437,-18.3105,-19.1956
1495414539.0324530602,1495414539.0347421169,  0.0369, -0.9121, -0.1958,-38.5437,-18.3105,-19.1956
1495414539.0349700451,1495414539.0385670662,  0.0369, -0.9121, -0.1958,-38.5437,-34.7443,-29.7089
1495414539.0386490822,1495414539.0409269333,  0.0369, -0.9121, -0.1958,-50.3082,-34.7443,-29.7089
1495414539.0410048962,1495414539.0432839394,  0.0369, -0.9121, -0.1958,-50.3082,-34.7443,-29.7089
1495414539.0433619022,1495414539.0457000732, -0.1506, -0.8718, -0.1101,-50.3082,-34.7443,-29.7089
1495414539.0457789898,1495414539.0480940342, -0.1860, -0.8718, -0.1101,-50.3082,-34.7443,-29.7089
1495414539.0481729507,1495414539.0504550934, -0.1860, -0.8718, -0.1101,-47.1344,-51.3763,-31.2195
1495414539.0505340099,1495414539.0528149605, -0.1860, -0.8718, -0.1101,-47.1344,-51.3763,-31.2195
1495414539.0528941154,1495414539.0553059578, -0.1860, -0.8718, -0.1101,-47.1344,-51.3763,-31.2195
1495414539.0553851128,1495414539.0577321053, -0.1860, -0.8718, -0.1101,-47.1344,-51.3763,-31.2195
1495414539.0578110218,1495414539.0600969791, -0.1860, -0.8718, -0.1101,-48.3856,-65.7806,-24.9329
1495414539.0601749420,1495414539.0624599457, -0.1860, -0.8718, -0.1101,-48.3856,-65.7806,-24.9329
1495414539.0625379086,1495414539.0648190975, -0.1860, -0.8718, -0.0476,-48.3856,-65.7806,-24.9329
1495414539.0648970604,1495414539.0672309399, -0.2661, -0.8838, -0.0610,-48.3856,-65.7806,-24.9329
1495414539.0673100948,1495414539.0695888996, -0.2661, -0.8838, -0.0610,-48.3856,-65.7806,-17.1204
1495414539.0696671009,1495414539.0719490051, -0.2661, -0.8838, -0.0610,-45.8679,-70.4346,-17.0135
1495414539.0720279217,1495414539.0743141174, -0.2661, -0.8838, -0.0610,-45.8679,-70.4346,-17.0135
1495414539.0743920803,1495414539.0767219067, -0.2661, -0.8838, -0.0610,-45.8679,-70.4346,-17.0135
1495414539.0768010616,1495414539.0790929794, -0.2661, -0.8838, -0.0610,-45.8679,-70.4346,-17.0135
1495414539.0791718960,1495414539.0814580917, -0.2661, -0.8838, -0.0610,-35.9650,-65.0024,-10.8795
1495414539.0815379620,1495414539.0838201046, -0.2661, -0.8838, -0.0610,-35.9650,-65.0024,-10.8795
1495414539.0838990211,1495414539.0861880779, -0.2231, -0.8384, -0.1152,-35.9650,-65.0024,-10.8795
1495414539.0864880085,1495414539.0887780190, -0.2231, -0.8384, -0.1152,-35.9650,-65.0024,-10.8795
1495414539.0888578892,1495414539.0911529064, -0.2231, -0.8384, -0.1152,-35.9650,-65.0024, -6.8054
1495414539.0912289619,1495414539.0935211182, -0.2231, -0.8384, -0.1152,-28.7323,-53.1464, -6.8054
1495414539.0935978889,1495414539.0958840847, -0.2231, -0.8384, -0.1152,-28.7323,-53.1464, -6.8054
1495414539.0959599018,1495414539.0984570980, -0.2231, -0.8384, -0.1152,-28.7323,-53.1464, -6.8054
1495414539.0985341072,1495414539.1008250713, -0.2231, -0.8384, -0.1152,-28.7323,-53.1464, -6.8054
1495414539.1009020805,1495414539.1031949520, -0.2231, -0.8384, -0.1152,-22.0795,-40.8173, -5.0201
1495414539.1032710075,1495414539.1055629253, -0.2231, -0.8789, -0.2063,-22.0795,-40.8173, -5.0201
1495414539.1056399345,1495414539.1080279350, -0.1445, -0.8789, -0.2063,-22.0795,-40.8173, -5.0201
1495414539.1081049442,1495414539.1105160713, -0.1445, -0.8789, -0.2063,-22.0795,-40.8173, -5.0201
1495414539.1105918884,1495414539.1130030155, -0.1445, -0.8789, -0.2063,-12.6190,-31.6010, -3.4790
1495414539.1130800247,1495414539.1154909134, -0.1445, -0.8789, -0.2063,-12.6190,-31.6010, -3.4790
1495414539.1155679226,1495414539.1179881096, -0.1445, -0.8789, -0.2063,-12.6190,-31.6010, -3.4790
1495414539.1180651188,1495414539.1204679012, -0.1445, -0.8789, -0.2063,-12.6190,-31.6010, -3.4790
1495414539.1205449104,1495414539.1229479313, -0.1445, -0.8789, -0.2063,-12.6190,-23.7885, -4.3335
1495414539.1230239868,1495414539.1254339218, -0.1445, -0.8789, -0.2163, -8.7280,-26.4740, -4.3335
1495414539.1256470680,1495414539.1282529831, -0.1089, -0.9204, -0.2163, -8.7280,-26.4740, -4.3335
1495414539.1283290386,1495414539.1306240559, -0.1089, -0.9204, -0.2163, -8.7280,-26.4740, -4.3335
1495414539.1306979656,1495414539.1329879761, -0.1089, -0.9204, -0.2163, -8.7280,-26.4740, -4.3335
1495414539.1330630779,1495414539.1353509426, -0.1089, -0.9204, -0.2163, -6.1340,-25.5737, -6.8207
1495414539.1354238987,1495414539.1378290653, -0.1089, -0.9204, -0.2163, -6.1340,-25.5737, -6.8207
1495414539.1379039288,1495414539.1402769089, -0.1089, -0.9204, -0.2163, -6.1340,-25.5737, -6.8207
1495414539.1403520107,1495414539.1436998844, -0.1089, -0.9204, -0.2163, -6.1340,-25.5737,-10.7269
1495414539.1437790394,1495414539.1460549831, -0.0781, -0.9700, -0.2007, -4.4403,-27.3743, -8.9722
1495414539.1461300850,1495414539.1485159397, -0.0781, -0.9700, -0.2007, -4.4403,-27.3743, -8.9722
1495414539.1485910416,1495414539.1508760452, -0.0781, -0.9700, -0.2007, -4.4403,-27.3743, -8.9722
1495414539.1509509087,1495414539.1532280445, -0.0781, -0.9700, -0.2007, -4.4403,-27.3743, -8.9722
1495414539.1533041000,1495414539.1555879116, -0.0781, -0.9700, -0.2007, -6.5308,-29.9835,-12.0239
1495414539.1556649208,1495414539.1580119133, -0.0781, -0.9700, -0.2007, -6.5308,-29.9835,-12.0239
1495414539.1580879688,1495414539.1603710651, -0.0781, -0.9700, -0.2007, -6.5308,-29.9835,-12.0239
1495414539.1604468822,1495414539.1627280712, -0.0781, -0.9700, -0.2007, -6.5308,-29.9835,-12.0239
1495414539.1628038883,1495414539.1650860310, -0.0781, -0.9700, -0.2068, -6.5308,-29.9835,-16.4795
1495414539.1651620865,1495414539.1674621105, -0.0801, -0.9780, -0.2068, -2.6398,-31.2805,-16.4795
1495414539.1675388813,1495414539.1698279381, -0.0801, -0.9780, -0.2068, -2.6398,-31.2805,-16.4795
1495414539.1699049473,1495414539.1721839905, -0.0801, -0.9780, -0.2068, -2.6398,-31.2805,-16.4795
1495414539.1722600460,1495414539.1745469570, -0.0801, -0.9780, -0.2068, -2.6398,-31.2805,-16.4795
1495414539.1746230125,1495414539.1769840717, -0.0801, -0.9780, -0.2068,  4.5319,-31.0516,-22.5372
1495414539.1770610809,1495414539.1793460846, -0.0801, -0.9780, -0.2068,  4.5319,-31.0516,-22.5372
1495414539.1794230938,1495414539.1817090511, -0.0801, -0.9780, -0.2068,  4.5319,-31.0516,-22.5372
1495414539.1817851067,1495414539.1840600967, -0.0801, -0.9780, -0.2068,  4.5319,-31.0516,-22.5372
1495414539.1841371059,1495414539.1865139008, -0.1589, -1.0178, -0.1523,  4.5319,-34.9579,-27.7863
1495414539.1865909100,1495414539.1888799667, -0.1589, -1.0178, -0.1523,  2.5787,-31.6925,-27.7863
1495414539.1889550686,1495414539.1913158894, -0.1589, -1.0178, -0.1523,  2.5787,-31.6925,-27.7863
1495414539.1913919449,1495414539.1936779022, -0.1589, -1.0178, -0.1523,  2.5787,-31.6925,-27.7863
1495414539.1937530041,1495414539.1960330009, -0.1589, -1.0178, -0.1523,  2.5787,-31.6925,-27.7863
1495414539.1961081028,1495414539.1985158920, -0.1589, -1.0178, -0.1523, -1.4648,-31.2805,-29.7546
1495414539.1985919476,1495414539.2009809017, -0.1589, -1.0178, -0.1523, -1.4648,-31.2805,-29.7546
1495414539.2010569572,1495414539.2033340931, -0.1589, -1.0178, -0.1523, -1.4648,-31.2805,-29.7546
1495414539.2034089565,1495414539.2056920528, -0.1589, -1.0271, -0.1218, -1.4648,-31.2805,-29.7546
1495414539.2057669163,1495414539.2080619335, -0.1611, -1.0271, -0.1218, -4.3182,-26.4893,-29.7394
1495414539.2081389427,1495414539.2104489803, -0.1611, -1.0271, -0.1218, -4.3182,-26.4893,-29.7394
1495414539.2105259895,1495414539.2128078938, -0.1611, -1.0271, -0.1218, -4.3182,-26.4893,-29.7394
1495414539.2128839493,1495414539.2151620388, -0.1611, -1.0271, -0.1218, -4.3182,-26.4893,-29.7394
1495414539.2152380943,1495414539.2175250053, -0.1611, -1.0271, -0.1218, -4.3182,-26.4893,-29.7394
1495414539.2176010609,1495414539.2198879719, -0.1611, -1.0271, -0.1218, -6.0425,-17.7460,-27.5879
1495414539.2199640274,1495414539.2222449780, -0.1611, -1.0271, -0.1218, -6.0425,-17.7460,-27.5879
1495414539.2223210335,1495414539.2246029377, -0.1611, -1.0271, -0.1218, -6.0425,-17.7460,-27.5879
1495414539.2247989178,1495414539.2271540165, -0.1218, -1.0237, -0.1365, -6.0425,-17.7460,-27.5879
1495414539.2272300720,1495414539.2296390533, -0.1218, -1.0237, -0.1365, -5.7983, -6.5613,-25.4059
1495414539.2297129631,1495414539.2321159840, -0.1218, -1.0237, -0.1365, -5.7983, -6.5613,-25.4059
1495414539.2321898937,1495414539.2345979214, -0.1218, -1.0237, -0.1365, -5.7983, -6.5613,-25.4059
1495414539.2346711159,1495414539.2370870113, -0.1218, -1.0237, -0.1365, -5.7983, -6.5613,-25.4059
1495414539.2371599674,1495414539.2395749092, -0.1218, -1.0237, -0.1365, -1.8921,  5.0812,-23.5901
1495414539.2396490574,1495414539.2420589924, -0.1218, -1.0237, -0.1365, -2.4567,  5.0812,-23.5901
1495414539.2421329021,1495414539.2445430756, -0.1218, -1.0237, -0.1365, -2.4567,  5.0812,-23.5901
1495414539.2446160316,1495414539.2470519543, -0.0420, -1.0510, -0.1917, -2.4567,  5.0812,-23.5901
1495414539.2471270561,1495414539.2494070530, -0.0420, -1.0510, -0.1917, -2.4567,  5.0812,-19.6838
1495414539.2494809628,1495414539.2517640591, -0.0420, -1.0510, -0.1917, -0.1526, 15.3503,-22.7814
1495414539.2518420219,1495414539.2542629242, -0.0420, -1.0510, -0.1917, -0.1526, 15.3503,-22.7814
1495414539.2543420792,1495414539.2570979595, -0.0420, -1.0510, -0.1917, -0.1526, 15.3503,-22.7814
1495414539.2571771145,1495414539.2595920563, -0.0420, -1.0510, -0.1917, -0.1526, 15.3503,-22.7814
1495414539.2596690655,1495414539.2620759010, -0.0420, -1.0510, -0.1917,  1.6327, 22.6135,-23.4070
1495414539.2621529102,1495414539.2645659447, -0.0420, -1.0510, -0.1917,  1.6327, 22.6135,-23.4070
1495414539.2646429539,1495414539.2670938969, -0.0273, -1.1172, -0.2244,  1.6327, 22.6135,-23.4070
1495414539.2671709061,1495414539.2695829868, -0.0273, -1.1172, -0.2244,  1.6327, 22.6135,-23.4070
1495414539.2696599960,1495414539.2720739841, -0.0273, -1.1172, -0.2244,  1.2360, 27.4658,-26.3214
1495414539.2721509933,1495414539.2745571136, -0.0273, -1.1172, -0.2244,  1.2360, 27.4658,-26.3214
1495414539.2746329308,1495414539.2770819664, -0.0273, -1.1172, -0.2244,  1.2360, 27.4658,-26.3214
1495414539.2771589756,1495414539.2795720100, -0.0273, -1.1172, -0.2244,  1.2360, 27.4658,-26.3214
1495414539.2796480656,1495414539.2820570469, -0.0273, -1.1172, -0.2244,  1.0986, 25.1770,-29.1901
1495414539.2821331024,1495414539.2845458984, -0.0273, -1.1172, -0.2244,  1.0986, 25.1770,-29.1901
1495414539.2846219540,1495414539.2870318890, -0.0449, -1.1050, -0.2061,  1.0986, 25.1770,-29.1901
1495414539.2871100903,1495414539.2893910408, -0.0449, -1.1050, -0.2061,  1.0986, 25.1770,-29.1901
1495414539.2894680500,1495414539.2917530537, -0.0449, -1.1050, -0.2061,  1.0986, 25.1770,-31.5399
1495414539.2918300629,1495414539.2941150665, -0.0449, -1.1050, -0.2061,  4.0131, 18.6462,-31.5399
1495414539.2941920757,1495414539.2965168953, -0.0449, -1.1050, -0.2061,  4.0131, 18.6462,-31.5399
1495414539.2965950966,1495414539.2988820076, -0.0449, -1.1050, -0.2061,  4.0131, 18.6462,-31.5399
1495414539.2989590168,1495414539.3012440205, -0.0449, -1.1050, -0.2061,  4.0131, 18.6462,-31.5399
1495414539.3013210297,1495414539.3036088943, -0.0449, -1.1050, -0.2061,  5.4779,  8.1177,-34.0118
1495414539.3036830425,1495414539.3059649467, -0.0449, -1.1128, -0.1785,  5.4779,  8.1177,-34.0118
1495414539.3060390949,1495414539.3084969521, -0.0452, -1.1128, -0.1785,  5.4779,  8.1177,-34.0118
1495414539.3085711002,1495414539.3108599186, -0.0452, -1.1128, -0.1785,  5.4779,  8.1177,-34.0118
1495414539.3109340668,1495414539.3132181168, -0.0452, -1.1128, -0.1785,  5.4779, -3.6011,-35.9344
1495414539.3132901192,1495414539.3155739307, -0.0452, -1.1128, -0.1785,  7.5531, -2.7161,-35.9344
1495414539.3156468868,1495414539.3181879520, -0.0452, -1.1128, -0.1785,  7.5531, -2.7161,-35.9344
1495414539.3182621002,1495414539.3206679821, -0.0452, -1.1128, -0.1785,  7.5531, -2.7161,-35.9344
1495414539.3207409382,1495414539.3231470585, -0.0452, -1.1128, -0.1785,  7.5531, -2.7161,-35.9344
1495414539.3232209682,1495414539.3256459236, -0.0452, -1.1128, -0.1567,  9.4147,-11.1542,-38.5590
1495414539.3257238865,1495414539.3282289505, -0.0562, -1.1077, -0.1567,  9.4147,-11.1542,-38.5590
1495414539.3284211159,1495414539.3307950497, -0.0562, -1.1077, -0.1567,  9.4147,-11.1542,-38.5590
1495414539.3308720589,1495414539.3337020874, -0.0562, -1.1077, -0.1567,  9.4147,-11.1542,-38.5590
1495414539.3337819576,1495414539.3360610008, -0.0562, -1.1077, -0.1567,  9.5367,-16.3116,-41.3208
1495414539.3361389637,1495414539.3385128975, -0.0562, -1.1077, -0.1567,  9.5367,-16.3116,-41.3208
1495414539.3385910988,1495414539.3408679962, -0.0562, -1.1077, -0.1567,  9.5367,-16.3116,-41.3208
1495414539.3409440517,1495414539.3432240486, -0.0562, -1.1077, -0.1567,  9.5367,-16.3116,-41.3208
1495414539.3433001041,1495414539.3455760479, -0.0562, -1.1077, -0.1150,  6.2866,-16.0370,-44.4946
1495414539.3456530571,1495414539.3480041027, -0.0090, -1.1250, -0.1150,  6.2866,-16.0370,-44.4946
1495414539.3480830193,1495414539.3503670692, -0.0090, -1.1250, -0.1150,  6.2866,-16.0370,-44.4946
1495414539.3504450321,1495414539.3527250290, -0.0090, -1.1250, -0.1150,  6.2866,-16.0370,-44.4946
1495414539.3528039455,1495414539.3550848961, -0.0090, -1.1250, -0.1150,  6.2866,-16.0370,-44.4946
1495414539.3551619053,1495414539.3574619293, -0.0090, -1.1250, -0.1150,  0.0610,-15.7013,-45.7001
1495414539.3575410843,1495414539.3598229885, -0.0090, -1.1250, -0.1150,  0.0610,-15.7013,-45.7001
1495414539.3599009514,1495414539.3621830940, -0.0090, -1.1250, -0.1150,  0.0610,-15.7013,-45.7001
1495414539.3622610569,1495414539.3645389080, -0.0090, -1.1250, -0.1150,  0.0610,-15.7013,-45.7001
1495414539.3646180630,1495414539.3671081066, -0.0103, -1.0708, -0.1001, -4.4403,-17.4408,-47.3022
1495414539.3671851158,1495414539.3694689274, -0.0103, -1.0708, -0.1001, -4.4403,-17.4408,-47.3022
1495414539.3695468903,1495414539.3718299866, -0.0103, -1.0708, -0.1001, -4.4403,-17.4408,-47.3022
1495414539.3719060421,1495414539.3741869926, -0.0103, -1.0708, -0.1001, -4.4403,-17.4408,-47.3022
1495414539.3742630482,1495414539.3766500950, -0.0103, -1.0708, -0.1001, -4.4403,-17.4408,-52.3529
1495414539.3767280579,1495414539.3790090084, -0.0103, -1.0708, -0.1001, -7.4463,-19.2566,-52.3529
1495414539.3790860176,1495414539.3813679218, -0.0103, -1.0708, -0.1001, -7.4463,-19.2566,-52.3529
1495414539.3814430237,1495414539.3837189674, -0.0103, -1.0708, -0.1001, -7.4463,-19.2566,-52.3529
1495414539.3837950230,1495414539.3860681057, -0.0103, -0.9988, -0.0662, -7.4463,-19.2566,-52.3529
1495414539.3861439228,1495414539.3885149956, -0.0544, -0.9988, -0.0662, -7.0343,-19.2261,-58.5327
1495414539.3885920048,1495414539.3908689022, -0.0544, -0.9988, -0.0662, -7.0343,-19.2261,-58.5327
1495414539.3909449577,1495414539.3932220936, -0.0544, -0.9988, -0.0662, -7.0343,-19.2261,-58.5327
1495414539.3932979107,1495414539.3955760002, -0.0544, -0.9988, -0.0662, -7.0343,-19.2261,-58.5327
1495414539.3956530094,1495414539.3980069160, -0.0544, -0.9988, -0.0662, -7.0343,-16.3269,-65.1550
1495414539.3980829716,1495414539.4003660679, -0.0544, -0.9988, -0.0662, -0.8545,-16.3269,-65.1550
1495414539.4004430771,1495414539.4027209282, -0.0544, -0.9988, -0.0662, -0.8545,-16.3269,-65.1550
1495414539.4027979374,1495414539.4050760269, -0.0544, -0.9988, -0.0662, -0.8545,-16.3269,-65.1550
1495414539.4051520824,1495414539.4074618816, -0.0540, -1.0549, -0.1492, -0.8545,-16.3269,-65.1550
1495414539.4075400829,1495414539.4098238945, -0.0540, -1.0549, -0.1492, 12.3138,-11.0931,-70.7550
1495414539.4099040031,1495414539.4121809006, -0.0540, -1.0549, -0.1492, 12.3138,-11.0931,-70.7550
1495414539.4122600555,1495414539.4145400524, -0.0540, -1.0549, -0.1492, 12.3138,-11.0931,-70.7550
1495414539.4146199226,1495414539.4169139862, -0.0540, -1.0549, -0.1492, 12.3138,-11.0931,-70.7550
1495414539.4169919491,1495414539.4192728996, -0.0540, -1.0549, -0.1492, 24.0326, -6.0730,-71.9910
1495414539.4193511009,1495414539.4216289520, -0.0540, -1.0549, -0.1492, 26.6113, -6.0730,-71.9910
1495414539.4217059612,1495414539.4239881039, -0.0540, -1.0549, -0.1492, 26.6113, -6.0730,-71.9910
1495414539.4240651131,1495414539.4263501167,  0.0085, -1.1111, -0.2109, 26.6113, -6.0730,-71.9910
1495414539.4264280796,1495414539.4287109375,  0.0146, -1.1111, -0.2109, 26.6113, -6.0730,-71.9910
1495414539.4288990498,1495414539.4311850071,  0.0146, -1.1111, -0.2109, 35.7819, -3.9978,-68.8171
1495414539.4312610626,1495414539.4336628914,  0.0146, -1.1111, -0.2109, 35.7819, -3.9978,-68.8171
1495414539.4337499142,1495414539.4360399246,  0.0146, -1.1111, -0.2109, 35.7819, -3.9978,-68.8171
1495414539.4361178875,1495414539.4385440350,  0.0146, -1.1111, -0.2109, 35.7819, -3.9978,-68.8171
1495414539.4386219978,1495414539.4410250187,  0.0146, -1.1111, -0.2109, 38.4521, -3.2043,-63.5986
1495414539.4411020279,1495414539.4435930252,  0.0146, -1.1111, -0.2109, 38.4521, -3.2043,-63.5986
1495414539.4436709881,1495414539.4460721016,  0.0146, -1.1299, -0.2742, 38.4521, -3.2043,-63.5986
1495414539.4461479187,1495414539.4492619038,  0.1394, -1.1299, -0.2742, 38.4521, -3.2043,-63.5986
1495414539.4493410587,1495414539.4516251087,  0.1394, -1.1299, -0.2742, 38.7268, -0.0763,-57.9376
1495414539.4517030716,1495414539.4539780617,  0.1394, -1.1299, -0.2742, 38.7268, -0.0763,-57.9376
1495414539.4540550709,1495414539.4564731121,  0.1394, -1.1299, -0.2742, 38.7268, -0.0763,-57.9376
1495414539.4565598965,1495414539.4591429234,  0.1394, -1.1299, -0.2742, 38.7268, -0.0763,-57.9376
1495414539.4592230320,1495414539.4615008831,  0.1394, -1.1299, -0.2742, 34.8206,  3.5248,-52.5360
1495414539.4615790844,1495414539.4638650417,  0.1394, -1.1299, -0.2742, 32.5623,  3.5248,-52.5360
1495414539.4639410973,1495414539.4668951035,  0.1394, -1.1714, -0.2498, 32.5623,  3.5248,-52.5360
1495414539.4669721127,1495414539.4692540169,  0.2000, -1.1714, -0.2498, 32.5623,  3.5248,-52.5360
1495414539.4693310261,1495414539.4716069698,  0.2000, -1.1714, -0.2498, 32.5623,  3.5248,-49.7131
1495414539.4716830254,1495414539.4739570618,  0.2000, -1.1714, -0.2498, 24.0784,  5.5695,-49.7131
1495414539.4740331173,1495414539.4763250351,  0.2000, -1.1714, -0.2498, 24.0784,  5.5695,-49.7131
1495414539.4764010906,1495414539.4786779881,  0.2000, -1.1714, -0.2498, 24.0784,  5.5695,-49.7131
1495414539.4787540436,1495414539.4810340405,  0.2000, -1.1714, -0.2498, 24.0784,  5.5695,-49.7131
1495414539.4811110497,1495414539.4833869934,  0.2000, -1.1714, -0.2498, 18.3563,  2.0599,-50.6592
1495414539.4834630489,1495414539.4857380390,  0.2000, -1.1714, -0.2102, 18.3563,  2.0599,-50.6592
1495414539.4858129025,1495414539.4881041050,  0.2393, -1.1729, -0.2102, 18.3563,  2.0599,-50.6592
1495414539.4881811142,1495414539.4904530048,  0.2393, -1.1729, -0.2102, 18.3563,  2.0599,-50.6592
1495414539.4905281067,1495414539.4927999973,  0.2393, -1.1729, -0.2102, 18.3563,  2.0599,-57.0526
1495414539.4928750992,1495414539.4951539040,  0.2393, -1.1729, -0.2102, 15.0757, -8.3771,-57.0526
1495414539.4952321053,1495414539.4975149632,  0.2393, -1.1729, -0.2102, 15.0757, -8.3771,-57.0526
1495414539.4975929260,1495414539.4998669624,  0.2393, -1.1729, -0.2102, 15.0757, -8.3771,-57.0526
1495414539.4999439716,1495414539.5022199154,  0.2393, -1.1729, -0.2102, 15.0757, -8.3771,-57.0526
1495414539.5022959709,1495414539.5045731068,  0.2393, -1.1729, -0.2102, 17.2119,-23.1171,-65.5365
1495414539.5046510696,1495414539.5070340633,  0.3633, -1.1655, -0.2405, 17.2119,-23.1171,-65.5365
1495414539.5071129799,1495414539.5093960762,  0.3633, -1.1655, -0.2405, 17.2119,-23.1171,-65.5365
1495414539.5094740391,1495414539.5117518902,  0.3633, -1.1655, -0.2405, 17.2119,-23.1171,-65.5365
1495414539.5118300915,1495414539.5141119957,  0.3633, -1.1655, -0.2405, 17.2119,-42.6483,-74.0051
1495414539.5141899586,1495414539.5166609287,  0.3633, -1.1655, -0.2405, 23.7732,-39.6423,-74.0051
1495414539.5167400837,1495414539.5190179348,  0.3633, -1.1655, -0.2405, 23.7732,-39.6423,-74.0051
1495414539.5190970898,1495414539.5213749409,  0.3633, -1.1655, -0.2405, 23.7732,-39.6423,-74.0051
1495414539.5214519501,1495414539.5237309933,  0.3633, -1.1655, -0.2405, 23.7732,-39.6423,-74.0051
1495414539.5238080025,1495414539.5260889530,  0.3633, -1.2280, -0.2556, 28.4882,-53.0396,-85.7697
1495414539.5261669159,1495414539.5284600258,  0.4214, -1.2158, -0.2556, 28.4882,-53.0396,-85.7697
1495414539.5285389423,1495414539.5308248997,  0.4214, -1.2158, -0.2556, 28.4882,-53.0396,-85.7697
1495414539.5310120583,1495414539.5333011150,  0.4214, -1.2158, -0.2556, 28.4882,-53.0396,-85.7697
1495414539.5333800316,1495414539.5356600285,  0.4214, -1.2158, -0.2556, 26.3214,-64.5142,-97.9614
1495414539.5357379913,1495414539.5381309986,  0.4214, -1.2158, -0.2556, 26.3214,-64.5142,-97.9614
1495414539.5382089615,1495414539.5406138897,  0.4214, -1.2158, -0.2556, 26.3214,-64.5142,-97.9614
1495414539.5406920910,1495414539.5430929661,  0.4214, -1.2158, -0.2556, 26.3214,-64.5142,-97.9614
1495414539.5431709290,1495414539.5455720425,  0.4214, -1.2158, -0.2556, 26.3214,-64.5142,-108.9020
1495414539.5456519127,1495414539.5481069088,  0.3879, -1.2507, -0.2771, 27.1759,-71.7773,-108.9020
1495414539.5481870174,1495414539.5505940914,  0.3879, -1.2507, -0.2771, 27.1759,-71.7773,-108.9020
1495414539.5506739616,1495414539.5530800819,  0.3879, -1.2507, -0.2771, 27.1759,-71.7773,-108.9020
1495414539.5531599522,1495414539.5555610657,  0.3879, -1.2507, -0.2771, 27.1759,-71.7773,-108.9020
1495414539.5556399822,1495414539.5580880642,  0.3879, -1.2507, -0.2771, 31.3721,-75.8209,-118.2556
1495414539.5581669807,1495414539.5605731010,  0.3879, -1.2507, -0.2771, 31.3721,-75.8209,-118.2556
1495414539.5606520176,1495414539.5630619526,  0.3879, -1.2507, -0.2771, 31.3721,-75.8209,-118.2556
1495414539.5631399155,1495414539.5655469894,  0.3879, -1.2507, -0.2771, 31.3721,-75.8209,-118.2556
1495414539.5656249523,1495414539.5680820942,  0.3145, -1.3015, -0.3386, 32.8979,-79.2999,-123.2147
1495414539.5681600571,1495414539.5705690384,  0.3145, -1.3015, -0.3386, 32.8979,-79.2999,-123.2147
1495414539.5706479549,1495414539.5730650425,  0.3145, -1.3015, -0.3386, 32.8979,-79.2999,-123.2147
1495414539.5731449127,1495414539.5755600929,  0.3145, -1.3015, -0.3386, 32.8979,-79.2999,-123.2147
1495414539.5756390095,1495414539.5780169964,  0.3145, -1.3015, -0.3386, 33.1879,-80.5359,-124.0387
1495414539.5780959129,1495414539.5803809166,  0.3145, -1.3015, -0.3386, 33.1879,-80.5359,-124.0387
1495414539.5804591179,1495414539.5828669071,  0.3145, -1.3015, -0.3386, 33.1879,-80.5359,-124.0387
1495414539.5829460621,1495414539.5852360725,  0.3145, -1.3015, -0.3386, 33.1879,-80.5359,-124.0387
1495414539.5853149891,1495414539.5884139538,  0.3076, -1.3215, -0.3381, 29.2816,-80.4596,-119.9493
1495414539.5884950161,1495414539.5907740593,  0.3076, -1.3215, -0.3381, 30.7465,-80.4596,-119.9493
1495414539.5908529758,1495414539.5931301117,  0.3076, -1.3215, -0.3381, 30.7465,-80.4596,-119.9493
1495414539.5932090282,1495414539.5954880714,  0.3076, -1.3215, -0.3381, 30.7465,-80.4596,-119.9493
1495414539.5955660343,1495414539.5979421139,  0.3076, -1.3215, -0.3381, 30.7465,-80.4596,-119.9493
1495414539.5980210304,1495414539.6002979279,  0.3076, -1.3215, -0.3381, 20.2179,-82.2754,-111.7859
1495414539.6003770828,1495414539.6026570797,  0.3076, -1.3215, -0.3381, 20.2179,-82.2754,-111.7859
1495414539.6027350426,1495414539.6050140858,  0.3076, -1.3215, -0.3381, 20.2179,-82.2754,-111.7859
1495414539.6050930023,1495414539.6074180603,  0.4116, -1.2590, -0.2864, 20.2179,-82.2754,-111.7859
1495414539.6074969769,1495414539.6097741127,  0.4116, -1.2590, -0.2864,  4.2114,-87.9364,-100.8301
1495414539.6098499298,1495414539.6121299267,  0.4116, -1.2590, -0.2864,  4.2114,-87.9364,-100.8301
1495414539.6122059822,1495414539.6144809723,  0.4116, -1.2590, -0.2864,  4.2114,-87.9364,-100.8301
1495414539.6145570278,1495414539.6168780327,  0.4116, -1.2590, -0.2864,  4.2114,-87.9364,-100.8301
1495414539.6169528961,1495414539.6192340851,  0.4116, -1.2590, -0.2864,  4.2114,-87.9364,-89.1113
1495414539.6193099022,1495414539.6215879917,  0.4116, -1.2590, -0.2864, -9.1248,-97.3511,-89.5844
1495414539.6216650009,1495414539.6239430904,  0.4116, -1.2590, -0.2864, -9.1248,-97.3511,-89.5844
1495414539.6240200996,1495414539.6263449192,  0.4116, -1.1392, -0.3650, -9.1248,-97.3511,-89.5844
1495414539.6264219284,1495414539.6287040710,  0.6465, -1.1392, -0.3650, -9.1248,-97.3511,-89.5844
1495414539.6287820339,1495414539.6310570240,  0.6465, -1.1392, -0.3650,-15.1062,-107.6965,-78.9795
1495414539.6312460899,1495414539.6341419220,  0.6465, -1.1392, -0.3650,-15.1062,-107.6965,-78.9795
1495414539.6342220306,1495414539.6365239620,  0.6465, -1.1392, -0.3650,-15.1062,-107.6965,-78.9795
1495414539.6366019249,1495414539.6388831139,  0.6465, -1.1392, -0.3650,-15.1062,-107.6965,-78.9795
1495414539.6389598846,1495414539.6412448883,  0.6465, -1.1392, -0.3650,-15.1062,-118.0115,-69.4885
1495414539.6413230896,1495414539.6436018944,  0.6465, -1.1392, -0.3650,-12.2528,-118.0115,-69.4885
1495414539.6436800957,1495414539.6459589005,  0.6465, -1.1392, -0.4680,-12.2528,-118.0115,-69.4885
1495414539.6460390091,1495414539.6483728886,  0.8298, -0.9180, -0.4680,-12.2528,-118.0115,-69.4885
1495414539.6490778923,1495414539.6513659954,  0.8298, -0.9180, -0.4680,-12.2528,-118.0115,-62.5763
1495414539.6514449120,1495414539.6537270546,  0.8298, -0.9180, -0.4680, -8.8501,-125.9918,-62.5763
1495414539.6538050175,1495414539.6560840607,  0.8298, -0.9180, -0.4680, -8.8501,-125.9918,-62.5763
1495414539.6561601162,1495414539.6584420204,  0.8298, -0.9180, -0.4680, -8.8501,-125.9918,-62.5763
1495414539.6585190296,1495414539.6613960266,  0.8298, -0.9180, -0.4680, -8.8501,-125.9918,-62.5763
1495414539.6614739895,1495414539.6637570858,  0.8298, -0.9180, -0.4680,-11.1847,-127.1973,-48.9502
1495414539.6638360023,1495414539.6661179066,  0.8298, -0.7930, -0.5046,-11.1847,-127.1973,-48.9502
1495414539.6661961079,1495414539.6684689522,  0.8464, -0.7822, -0.5046,-11.1847,-127.1973,-48.9502
1495414539.6685469151,1495414539.6708290577,  0.8464, -0.7822, -0.5046,-11.1847,-127.1973,-48.9502
1495414539.6709070206,1495414539.6731889248,  0.8464, -0.7822, -0.5046,-22.2778,-123.0011,-33.0353
1495414539.6732680798,1495414539.6755440235,  0.8464, -0.7822, -0.5046,-22.2778,-123.0011,-33.0353
1495414539.6756219864,1495414539.6779060364,  0.8464, -0.7822, -0.5046,-22.2778,-123.0011,-33.0353
1495414539.6779839993,1495414539.6802721024,  0.8464, -0.7822, -0.5046,-22.2778,-123.0011,-33.0353
1495414539.6803500652,1495414539.6826279163,  0.8464, -0.7822, -0.5046,-22.2778,-123.0011,-33.0353
1495414539.6827049255,1495414539.6849861145,  0.8464, -0.7822, -0.5046,-36.5601,-114.8071,-19.2108
1495414539.6850650311,1495414539.6873500347,  0.7258, -0.7043, -0.4292,-36.5601,-114.8071,-19.2108
1495414539.6874289513,1495414539.6897099018,  0.7258, -0.7043, -0.4292,-36.5601,-114.8071,-19.2108
1495414539.6897881031,1495414539.6920740604,  0.7258, -0.7043, -0.4292,-36.5601,-114.8071,-19.2108
1495414539.6921520233,1495414539.6944370270,  0.7258, -0.7043, -0.4292,-41.2292,-105.0262, -5.5084
1495414539.6945140362,1495414539.6968390942,  0.7258, -0.7043, -0.4292,-41.2292,-105.0262, -5.5084
1495414539.6969149113,1495414539.6991961002,  0.7258, -0.7043, -0.4292,-41.2292,-105.0262, -5.5084
1495414539.6992719173,1495414539.7015469074,  0.7258, -0.7043, -0.4292,-41.2292,-105.0262, -5.5084
1495414539.7016229630,1495414539.7039079666,  0.7258, -0.7043, -0.4292,-41.2292,-105.0262,  6.2103
1495414539.7039840221,1495414539.7064089775,  0.7258, -0.7043, -0.3550,-40.1306,-93.4906,  5.3406
1495414539.7064859867,1495414539.7087678909,  0.6377, -0.6985, -0.3550,-40.1306,-93.4906,  5.3406
1495414539.7088439465,1495414539.7111330032,  0.6377, -0.6985, -0.3550,-40.1306,-93.4906,  5.3406
1495414539.7112100124,1495414539.7134909630,  0.6377, -0.6985, -0.3550,-40.1306,-93.4906,  5.3406
1495414539.7135679722,1495414539.7158479691,  0.6377, -0.6985, -0.3550,-41.1072,-77.0721, 14.8621
1495414539.7159280777,1495414539.7183260918,  0.6377, -0.6985, -0.3550,-41.1072,-77.0721, 14.8621
1495414539.7184050083,1495414539.7206900120,  0.6377, -0.6985, -0.3550,-41.1072,-77.0721, 14.8621
1495414539.7207689285,1495414539.7230510712,  0.6377, -0.6985, -0.3550,-41.1072,-77.0721, 14.8621
1495414539.7231299877,1495414539.7254099846,  0.6377, -0.6985, -0.3550,-41.1072,-53.6346, 20.3552
1495414539.7254879475,1495414539.7278470993,  0.6433, -0.7610, -0.3525,-37.6282,-53.2837, 20.3552
1495414539.7279260159,1495414539.7302110195,  0.6433, -0.7610, -0.3525,-37.6282,-53.2837, 20.3552
1495414539.7302880287,1495414539.7325670719,  0.6433, -0.7610, -0.3525,-37.6282,-53.2837, 20.3552
1495414539.7327539921,1495414539.7351241112,  0.6433, -0.7610, -0.3525,-37.6282,-53.2837, 20.3552
1495414539.7352030277,1495414539.7376079559,  0.6433, -0.7610, -0.3525,-35.1562,-24.6277, 24.3378
1495414539.7376871109,1495414539.7399671078,  0.6433, -0.7610, -0.3525,-35.1562,-24.6277, 24.3378
1495414539.7400450706,1495414539.7429039478,  0.6433, -0.7610, -0.3525,-35.1562,-24.6277, 24.3378
1495414539.7429840565,1495414539.7452590466,  0.6433, -0.7610, -0.3525,-35.1562,-24.6277, 24.3378
1495414539.7453379631,1495414539.7476511002,  0.7153, -0.8220, -0.2827,-40.6036,  5.9662, 28.6560
1495414539.7477281094,1495414539.7500050068,  0.7153, -0.8220, -0.2827,-40.6036,  5.9662, 28.6560
1495414539.7500810623,1495414539.7523601055,  0.7153, -0.8220, -0.2827,-40.6036,  5.9662, 28.6560
1495414539.7524359226,1495414539.7547140121,  0.7153, -0.8220, -0.2827,-40.6036,  5.9662, 28.6560
1495414539.7547891140,1495414539.7570800781,  0.7153, -0.8220, -0.2827,-40.6036,  5.9662, 32.0892
1495414539.7571570873,1495414539.7596900463,  0.7153, -0.8220, -0.2827,-48.7518, 37.0026, 32.0892
1495414539.7597711086,1495414539.7620561123,  0.7153, -0.8220, -0.2827,-48.7518, 37.0026, 32.0892
1495414539.7621340752,1495414539.7644140720,  0.7153, -0.8220, -0.2827,-48.7518, 37.0026, 32.0892
1495414539.7644920349,1495414539.7667860985,  0.7153, -0.8547, -0.2612,-48.7518, 37.0026, 32.0892
1495414539.7668640614,1495414539.7691440582,  0.6890, -0.8547, -0.2612,-54.5959, 65.0177, 35.7513
1495414539.7692229748,1495414539.7715079784,  0.6890, -0.8547, -0.2612,-54.5959, 65.0177, 35.7513
1495414539.7715859413,1495414539.7738730907,  0.6890, -0.8547, -0.2612,-54.5959, 65.0177, 35.7513
1495414539.7739500999,1495414539.7762329578,  0.6890, -0.8547, -0.2612,-54.5959, 65.0177, 35.7513
1495414539.7763600349,1495414539.7786459923,  0.6890, -0.8547, -0.2612,-66.3147, 87.7991, 36.5448
1495414539.7787249088,1495414539.7810130119,  0.6890, -0.8547, -0.2612,-64.3463, 87.7991, 36.5448
1495414539.7810909748,1495414539.7833719254,  0.6890, -0.8547, -0.2612,-64.3463, 87.7991, 36.5448
1495414539.7834510803,1495414539.7857348919,  0.6890, -0.8547, -0.2612,-64.3463, 87.7991, 36.5448
1495414539.7858140469,1495414539.7881031036,  0.6257, -0.8613, -0.3250,-64.3463, 87.7991, 36.5448
1495414539.7881820202,1495414539.7904629707,  0.6257, -0.8613, -0.3250,-79.7729,102.8900, 35.2478
1495414539.7905418873,1495414539.7928249836,  0.6257, -0.8613, -0.3250,-79.7729,102.8900, 35.2478
1495414539.7929029465,1495414539.7951810360,  0.6257, -0.8613, -0.3250,-79.7729,102.8900, 35.2478
1495414539.7952599525,1495414539.7975490093,  0.6257, -0.8613, -0.3250,-79.7729,102.8900, 35.2478
1495414539.7976279259,1495414539.7999150753,  0.6257, -0.8613, -0.3250,-90.2252,111.0535, 31.8756
1495414539.7999949455,1495414539.8022758961,  0.6257, -0.8613, -0.3250,-90.2252,111.0535, 31.8756
1495414539.8023540974,1495414539.8046379089,  0.6257, -0.8613, -0.3250,-90.2252,111.0535, 31.8756
1495414539.8047161102,1495414539.8071630001,  0.5322, -0.8364, -0.3687,-90.2252,111.0535, 31.8756
1495414539.8072419167,1495414539.8095250130,  0.5322, -0.8364, -0.3687,-90.2252,111.0535, 24.0631
1495414539.8096039295,1495414539.8118898869,  0.5322, -0.8364, -0.3687,-97.5952,116.1499, 27.0538
1495414539.8119680882,1495414539.8142540455,  0.5322, -0.8364, -0.3687,-97.5952,116.1499, 27.0538
1495414539.8143329620,1495414539.8167970181,  0.5322, -0.8364, -0.3687,-97.5952,116.1499, 27.0538
1495414539.8168759346,1495414539.8192839622,  0.5322, -0.8364, -0.3687,-97.5952,116.1499, 27.0538
1495414539.8193631172,1495414539.8217720985,  0.5322, -0.8364, -0.3687,-106.5826,118.0878, 21.6675
1495414539.8218510151,1495414539.8242590427,  0.5322, -0.8364, -0.3687,-106.5826,118.0878, 21.6675
1495414539.8243370056,1495414539.8267390728,  0.5322, -0.7996, -0.3689,-106.5826,118.0878, 21.6675
1495414539.8268189430,1495414539.8291029930,  0.4653, -0.7996, -0.3689,-106.5826,118.0878, 21.6675
1495414539.8291819096,1495414539.8314719200,  0.4653, -0.7996, -0.3689,-118.3014,115.6921, 16.8762
1495414539.8316590786,1495414539.8339478970,  0.4653, -0.7996, -0.3689,-117.5537,115.6921, 16.8762
1495414539.8340270519,1495414539.8363409042,  0.4653, -0.7996, -0.3689,-117.5537,115.6921, 16.8762
1495414539.8364191055,1495414539.8387959003,  0.4653, -0.7996, -0.3689,-117.5537,115.6921, 16.8762
1495414539.8388750553,1495414539.8411509991,  0.4653, -0.7996, -0.3689,-117.5537,115.6921, 16.8762
1495414539.8412289619,1495414539.8435089588,  0.4653, -0.7996, -0.3689,-117.7063,112.7625, 11.2610
1495414539.8435859680,1495414539.8458650112,  0.4653, -0.7996, -0.3689,-117.7063,112.7625, 11.2610
1495414539.8459439278,1495414539.8483660221,  0.4043, -0.7634, -0.4365,-117.7063,112.7625, 11.2610
1495414539.8484458923,1495414539.8507249355,  0.4043, -0.7634, -0.4365,-117.7063,112.7625, 11.2610
1495414539.8508050442,1495414539.8541240692,  0.4043, -0.7634, -0.4365,-107.6965,111.2671,  5.2795
1495414539.8542029858,1495414539.8565208912,  0.4043, -0.7634, -0.4365,-107.6965,111.2671,  5.2795
1495414539.8565969467,1495414539.8588750362,  0.4043, -0.7634, -0.4365,-107.6965,111.2671,  5.2795
1495414539.8589510918,1495414539.8612248898,  0.4043, -0.7634, -0.4365,-107.6965,111.2671,  5.2795
1495414539.8613009453,1495414539.8635799885,  0.4043, -0.7634, -0.4365,-99.3347,110.0159, -0.8698
1495414539.8636579514,1495414539.8659338951,  0.4043, -0.7634, -0.4365,-99.3347,110.0159, -0.8698
1495414539.8660120964,1495414539.8682940006,  0.3901, -0.7397, -0.4331,-99.3347,110.0159, -0.8698
1495414539.8683710098,1495414539.8706519604,  0.3901, -0.7397, -0.4331,-99.3347,110.0159, -0.8698
1495414539.8707280159,1495414539.8730039597,  0.3901, -0.7397, -0.4331,-99.3347,110.0159, -4.7760
1495414539.8730800152,1495414539.8753619194,  0.3901, -0.7397, -0.4331,-90.6677,107.3151, -6.1951
1495414539.8754379749,1495414539.8777210712,  0.3901, -0.7397, -0.4331,-90.6677,107.3151, -6.1951
1495414539.8777980804,1495414539.8800709248,  0.3901, -0.7397, -0.4331,-90.6677,107.3151, -6.1951
1495414539.8801469803,1495414539.8824279308,  0.3901, -0.7397, -0.4331,-90.6677,107.3151, -6.1951
1495414539.8825039864,1495414539.8847808838,  0.3901, -0.7397, -0.4331,-82.8247,104.3701,-11.1389
1495414539.8848600388,1495414539.8871428967,  0.4229, -0.6907, -0.4719,-82.8247,104.3701,-11.1389
1495414539.8872220516,1495414539.8894999027,  0.4229, -0.6907, -0.4719,-82.8247,104.3701,-11.1389
1495414539.8895781040,1495414539.8918581009,  0.4229, -0.6907, -0.4719,-82.8247,104.3701,-11.1389
1495414539.8919360638,1495414539.8942129612,  0.4229, -0.6907, -0.4719,-82.8247,104.3701,-18.9514
1495414539.8942909241,1495414539.8966391087,  0.4229, -0.6907, -0.4719,-77.4689,107.1930,-15.7623
1495414539.8967180252,1495414539.8989989758,  0.4229, -0.6907, -0.4719,-77.4689,107.1930,-15.7623
1495414539.8990769386,1495414539.9013600349,  0.4229, -0.6907, -0.4719,-77.4689,107.1930,-15.7623
1495414539.9014379978,1495414539.9037210941,  0.4229, -0.6907, -0.4719,-77.4689,107.1930,-15.7623
1495414539.9037990570,1495414539.9060750008,  0.4229, -0.6907, -0.5344,-73.7152,111.1908,-19.9280
1495414539.9061539173,1495414539.9085340500,  0.4014, -0.6919, -0.5012,-73.7152,111.1908,-19.9280
1495414539.9086129665,1495414539.9108960629,  0.4014, -0.6919, -0.5012,-73.7152,111.1908,-19.9280
1495414539.9109749794,1495414539.9132549763,  0.4014, -0.6919, -0.5012,-73.7152,111.1908,-19.9280
1495414539.9133338928,1495414539.9156110287,  0.4014, -0.6919, -0.5012,-73.7152,111.1908,-22.2168
1495414539.9156899452,1495414539.9180219173,  0.4014, -0.6919, -0.5012,-77.1332,109.8633,-22.2168
1495414539.9181001186,1495414539.9203848839,  0.4014, -0.6919, -0.5012,-77.1332,109.8633,-22.2168
1495414539.9204630852,1495414539.9227418900,  0.4014, -0.6919, -0.5012,-77.1332,109.8633,-22.2168
1495414539.9228200912,1495414539.9251019955,  0.4014, -0.6919, -0.5012,-77.1332,109.8633,-22.2168
1495414539.9251799583,1495414539.9274671078,  0.3296, -0.6316, -0.4590,-78.9948,104.3396,-23.0713
1495414539.9275450706,1495414539.9298241138,  0.3296, -0.6316, -0.4590,-78.9948,104.3396,-23.0713
1495414539.9299020767,1495414539.9321799278,  0.3296, -0.6316, -0.4590,-78.9948,104.3396,-23.0713
1495414539.9323740005,1495414539.9346549511,  0.3296, -0.6316, -0.4590,-78.9948,104.3396,-23.0713
1495414539.9347341061,1495414539.9370589256,  0.3296, -0.6316, -0.4590,-78.9948, 93.8110,-22.3236
1495414539.9371380806,1495414539.9394140244,  0.3296, -0.6316, -0.4590,-87.0056, 93.8110,-22.3236
1495414539.9394929409,1495414539.9417738914,  0.3296, -0.6316, -0.4590,-87.0056, 93.8110,-22.3236
1495414539.9418520927,1495414539.9441330433,  0.3296, -0.6316, -0.4590,-87.0056, 93.8110,-22.3236
1495414539.9442119598,1495414539.9465200901,  0.3296, -0.6316, -0.4075,-87.0056, 93.8110,-22.3236
1495414539.9465990067,1495414539.9488921165,  0.2810, -0.5447, -0.4075,-97.5342, 78.3997,-18.3868
1495414539.9489729404,1495414539.9512588978,  0.2810, -0.5447, -0.4075,-97.5342, 78.3997,-18.3868
1495414539.9513380527,1495414539.9536190033,  0.2810, -0.5447, -0.4075,-97.5342, 78.3997,-18.3868
1495414539.9536969662,1495414539.9559760094,  0.2810, -0.5447, -0.4075,-97.5342, 78.3997,-18.3868
1495414539.9560539722,1495414539.9583899975,  0.2810, -0.5447, -0.4075,-109.2529, 63.8580,-12.4664
1495414539.9584689140,1495414539.9607479572,  0.2810, -0.5447, -0.4075,-105.8197, 63.8580,-12.4664
1495414539.9608259201,1495414539.9633040428,  0.2810, -0.5447, -0.4075,-105.8197, 63.8580,-12.4664
1495414539.9633839130,1495414539.9656651020,  0.2810, -0.5447, -0.4075,-105.8197, 63.8580,-12.4664
1495414539.9657430649,1495414539.9688420296,  0.2900, -0.4949, -0.3562,-105.8197, 53.9398, -6.1798
1495414539.9689209461,1495414539.9712049961,  0.2900, -0.4949, -0.3562,-112.5946, 53.9398, -6.1798
1495414539.9712820053,1495414539.9735538960,  0.2900, -0.4949, -0.3562,-112.5946, 53.9398, -6.1798
1495414539.9736309052,1495414539.9759080410,  0.2900, -0.4949, -0.3562,-112.5946, 53.9398, -6.1798
1495414539.9759840965,1495414539.9782650471,  0.2900, -0.4949, -0.3562,-112.5946, 53.9398, -6.1798
1495414539.9783420563,1495414539.9806239605,  0.2900, -0.4949, -0.3562,-115.8447, 47.7448,  0.7324
1495414539.9807009697,1495414539.9829881191,  0.2900, -0.4949, -0.3562,-115.8447, 47.7448,  0.7324
1495414539.9830648899,1495414539.9853370190,  0.2900, -0.4949, -0.3562,-115.8447, 47.7448,  0.7324
1495414539.9854149818,1495414539.9877009392,  0.3345, -0.5259, -0.3652,-115.8447, 47.7448,  0.7324
1495414539.9877779484,1495414539.9900569916,  0.3345, -0.5259, -0.3652,-111.9385, 44.8151,  6.3324
1495414539.9901330471,1495414539.9925210476,  0.3345, -0.5259, -0.3652,-112.4420, 44.8151,  6.3324
1495414539.9925971031,1495414539.9948799610,  0.3345, -0.5259, -0.3652,-112.4420, 44.8151,  6.3324
1495414539.9949550629,1495414539.9972870350,  0.3345, -0.5259, -0.3652,-112.4420, 44.8151,  6.3324
1495414539.9973640442,1495414539.9996449947,  0.3345, -0.5259, -0.3652,-112.4420, 44.8151,  6.3324
1495414539.9997200966,1495414540.0020339489,  0.3345, -0.5259, -0.3652,-109.7870, 42.4347, 10.2692
1495414540.0021131039,1495414540.0043909550,  0.3345, -0.5259, -0.3652,-109.7870, 42.4347, 10.2692
1495414540.0044701099,1495414540.0068819523,  0.3345, -0.5259, -0.3464,-109.7870, 42.4347, 10.2692
1495414540.0069611073,1495414540.0092470646,  0.3667, -0.5588, -0.3464,-109.7870, 42.4347, 10.2692
1495414540.0093259811,1495414540.0116000175,  0.3667, -0.5588, -0.3464,-111.0382, 40.3290, 13.7329
1495414540.0116789341,1495414540.0139539242,  0.3667, -0.5588, -0.3464,-111.0382, 40.3290, 13.7329
1495414540.0140330791,1495414540.0164530277,  0.3667, -0.5588, -0.3464,-111.0382, 40.3290, 13.7329
1495414540.0165319443,1495414540.0188229084,  0.3667, -0.5588, -0.3464,-111.0382, 40.3290, 13.7329
1495414540.0189020634,1495414540.0211899281,  0.3667, -0.5588, -0.3464,-111.0382, 40.3290, 14.6027
1495414540.0212690830,1495414540.0235550404,  0.3667, -0.5588, -0.3464,-116.6992, 38.0249, 14.6027
1495414540.0236339569,1495414540.0259160995,  0.3667, -0.5588, -0.3464,-116.6992, 38.0249, 14.6027
1495414540.0259940624,1495414540.0283899307,  0.3958, -0.5530, -0.2791,-116.6992, 38.0249, 14.6027
1495414540.0284709930,1495414540.0307540894,  0.3958, -0.5530, -0.2791,-116.6992, 38.0249, 14.6027
1495414540.0308339596,1495414540.0331199169,  0.3958, -0.5530, -0.2791,-130.4169, 37.2772, 14.6332
1495414540.0333099365,1495414540.0356009007,  0.3958, -0.5530, -0.2791,-130.4169, 37.2772, 14.6332
1495414540.0356800556,1495414540.0381109715,  0.3958, -0.5530, -0.2791,-130.4169, 37.2772, 14.6332
1495414540.0381910801,1495414540.0405991077,  0.3958, -0.5530, -0.2791,-130.4169, 37.2772, 14.6332
1495414540.0406789780,1495414540.0430860519,  0.3958, -0.5530, -0.2791,-142.1356, 39.3219, 15.3809
1495414540.0431659222,1495414540.0455698967,  0.3958, -0.5530, -0.2791,-143.3716, 39.3219, 15.3809
1495414540.0456500053,1495414540.0480070114,  0.3896, -0.4402, -0.2700,-143.3716, 39.3219, 15.3809
1495414540.0480880737,1495414540.0503730774,  0.3896, -0.4402, -0.2700,-143.3716, 39.3219, 15.3809
1495414540.0504519939,1495414540.0528819561,  0.3896, -0.4402, -0.2700,-143.3716, 39.3219, 17.6697
1495414540.0529630184,1495414540.0552480221,  0.3896, -0.4402, -0.2700,-145.8893, 43.2892, 17.6697
1495414540.0553259850,1495414540.0577950478,  0.3896, -0.4402, -0.2700,-145.8893, 43.2892, 17.6697
1495414540.0578739643,1495414540.0601620674,  0.3896, -0.4402, -0.2700,-145.8893, 43.2892, 17.6697
1495414540.0602400303,1495414540.0632839203,  0.3896, -0.4402, -0.2700,-145.8893, 43.2892, 21.5759
1495414540.0633640289,1495414540.0656459332,  0.3896, -0.4402, -0.2700,-146.4996, 45.8374, 22.4762
1495414540.0657260418,1495414540.0680561066,  0.3135, -0.3538, -0.3186,-146.4996, 45.8374, 22.4762
1495414540.0681350231,1495414540.0704140663,  0.3135, -0.3538, -0.3186,-146.4996, 45.8374, 22.4762
1495414540.0704910755,1495414540.0727779865,  0.3135, -0.3538, -0.3186,-146.4996, 45.8374, 22.4762
1495414540.0728559494,1495414540.0751330853,  0.3135, -0.3538, -0.3186,-147.6135, 42.0074, 30.3040
1495414540.0752129555,1495414540.0774979591,  0.3135, -0.3538, -0.3186,-147.6135, 42.0074, 30.3040
1495414540.0775771141,1495414540.0798630714,  0.3135, -0.3538, -0.3186,-147.6135, 42.0074, 30.3040
1495414540.0799419880,1495414540.0822219849,  0.3135, -0.3538, -0.3186,-147.6135, 42.0074, 30.3040
1495414540.0822999477,1495414540.0845880508,  0.3135, -0.3538, -0.3186,-147.6135, 42.0074, 43.8843
1495414540.0846660137,1495414540.0869600773,  0.3135, -0.2913, -0.2920,-147.4609, 28.6560, 43.8843
1495414540.0870389938,1495414540.0893220901,  0.2407, -0.2527, -0.2920,-147.4609, 28.6560, 43.8843
1495414540.0894010067,1495414540.0916869640,  0.2407, -0.2527, -0.2920,-147.4609, 28.6560, 43.8843
1495414540.0917661190,1495414540.0940499306,  0.2407, -0.2527, -0.2920,-147.4609, 28.6560, 43.8843
1495414540.0941278934,1495414540.0964100361,  0.2407, -0.2527, -0.2920,-149.8566,  9.2163, 59.9823
1495414540.0964879990,1495414540.0987730026,  0.2407, -0.2527, -0.2920,-149.8566,  9.2163, 59.9823
1495414540.0988500118,1495414540.1011359692,  0.2407, -0.2527, -0.2920,-149.8566,  9.2163, 59.9823
1495414540.1012139320,1495414540.1035020351,  0.2407, -0.2527, -0.2920,-149.8566,  9.2163, 59.9823
1495414540.1035799980,1495414540.1058630943,  0.2407, -0.2527, -0.2920,-149.8566,  9.2163, 73.0438
1495414540.1059410572,1495414540.1083459854,  0.2632, -0.3425, -0.3496,-152.6489,-11.0474, 73.0438
1495414540.1084270477,1495414540.1107180119,  0.2632, -0.3425, -0.3496,-152.6489,-11.0474, 73.0438
1495414540.1107969284,1495414540.1130800247,  0.2632, -0.3425, -0.3496,-152.6489,-11.0474, 73.0438
1495414540.1131579876,1495414540.1154410839,  0.2632, -0.3425, -0.3496,-152.6489,-11.0474, 73.0438
1495414540.1155200005,1495414540.1180250645,  0.2632, -0.3425, -0.3496,-146.6980,-27.1149, 80.0629
1495414540.1181049347,1495414540.1205079556,  0.2632, -0.3425, -0.3496,-146.6980,-27.1149, 80.0629
1495414540.1205871105,1495414540.1229948997,  0.2632, -0.3425, -0.3496,-146.6980,-27.1149, 80.0629
1495414540.1230731010,1495414540.1254770756,  0.2632, -0.3425, -0.3496,-146.6980,-27.1149, 80.0629
1495414540.1255569458,1495414540.1278989315,  0.3984, -0.5720, -0.4819,-125.1526,-33.6914, 78.9948
1495414540.1279790401,1495414540.1302669048,  0.3984, -0.5720, -0.4819,-125.1526,-33.6914, 78.9948
1495414540.1303460598,1495414540.1326310635,  0.3984, -0.5720, -0.4819,-125.1526,-33.6914, 78.9948
1495414540.1328189373,1495414540.1351079941,  0.3984, -0.5720, -0.4819,-125.1526,-33.6914, 78.9948
1495414540.1351881027,1495414540.1375539303,  0.3984, -0.5720, -0.4819,-125.1526,-33.6914, 72.1283
1495414540.1376340389,1495414540.1400380135,  0.3984, -0.5720, -0.4819,-100.3876,-33.9203, 72.1283
1495414540.1401178837,1495414540.1425321102,  0.3984, -0.5720, -0.4819,-100.3876,-33.9203, 72.1283
1495414540.1426110268,1495414540.1450219154,  0.3984, -0.5720, -0.4819,-100.3876,-33.9203, 72.1283
1495414540.1451020241,1495414540.1476070881,  0.4609, -0.6592, -0.5359,-100.3876,-33.9203, 72.1283
1495414540.1476869583,1495414540.1500570774,  0.4587, -0.6592, -0.5359,-87.8754,-24.7345, 69.7174
1495414540.1501340866,1495414540.1538150311,  0.4587, -0.6592, -0.5359,-87.8754,-24.7345, 69.7174
1495414540.1538980007,1495414540.1561770439,  0.4587, -0.6592, -0.5359,-87.8754,-24.7345, 69.7174
1495414540.1563389301,1495414540.1586189270,  0.4587, -0.6592, -0.5359,-87.8754,-24.7345, 68.1458
1495414540.1586968899,1495414540.1609759331,  0.4587, -0.6592, -0.5359,-86.0443,-23.0865, 68.1458
1495414540.1610538960,1495414540.1633338928,  0.4587, -0.6592, -0.5359,-86.0443,-23.0865, 68.1458
1495414540.1634130478,1495414540.1656930447,  0.4587, -0.6592, -0.5359,-86.0443,-23.0865, 68.1458
1495414540.1657710075,1495414540.1680569649,  0.2776, -0.4539, -0.5234,-86.0443,-23.0865, 68.1458
1495414540.1681358814,1495414540.1704189777,  0.2776, -0.4539, -0.5234,-96.1456,-36.7737, 67.2913
1495414540.1704978943,1495414540.1727790833,  0.2776, -0.4539, -0.5234,-96.1456,-36.7737, 67.2913
1495414540.1728579998,1495414540.1751379967,  0.2776, -0.4539, -0.5234,-96.1456,-36.7737, 67.2913
1495414540.1752169132,1495414540.1775040627,  0.2776, -0.4539, -0.5234,-96.1456,-36.7737, 67.2913
1495414540.1775839329,1495414540.1798629761,  0.2776, -0.4539, -0.5234,-96.1456,-36.7737, 68.0847
1495414540.1799418926,1495414540.1822280884,  0.2776, -0.4539, -0.5234,-108.3069,-53.0548, 68.0847
1495414540.1823070049,1495414540.1845910549,  0.2776, -0.4539, -0.5234,-108.3069,-53.0548, 68.0847
1495414540.1846699715,1495414540.1869599819,  0.2776, -0.4539, -0.5566,-108.3069,-53.0548, 68.0847
1495414540.1870388985,1495414540.1893200874,  0.2266, -0.2649, -0.5566,-108.3069,-53.0548, 68.0847
1495414540.1893990040,1495414540.1916770935,  0.2266, -0.2649, -0.5566,-116.9128,-66.6351, 71.3806
1495414540.1917569637,1495414540.1940350533,  0.2266, -0.2649, -0.5566,-116.9128,-66.6351, 71.3806
1495414540.1941139698,1495414540.1964530945,  0.2266, -0.2649, -0.5566,-116.9128,-66.6351, 71.3806
1495414540.1965320110,1495414540.1988201141,  0.2266, -0.2649, -0.5566,-116.9128,-66.6351, 71.3806
1495414540.1988990307,1495414540.2011859417,  0.2266, -0.2649, -0.5566,-116.9128,-74.4476, 76.0193
1495414540.2012650967,1495414540.2035479546,  0.2266, -0.2649, -0.5566,-117.1112,-76.9501, 76.0193
1495414540.2036280632,1495414540.2059109211,  0.2266, -0.2649, -0.5566,-117.1112,-76.9501, 76.0193
1495414540.2059910297,1495414540.2084760666,  0.1885, -0.2429, -0.4944,-117.1112,-76.9501, 76.0193
1495414540.2085568905,1495414540.2109649181,  0.1885, -0.2429, -0.4944,-117.1112,-76.9501, 76.0193
1495414540.2110440731,1495414540.2134540081,  0.1885, -0.2429, -0.4944,-101.0895,-82.7789, 81.5125
1495414540.2135341167,1495414540.2159440517,  0.1885, -0.2429, -0.4944,-101.0895,-82.7789, 81.5125
1495414540.2160229683,1495414540.2184770107,  0.1885, -0.2429, -0.4944,-101.0895,-82.7789, 81.5125
1495414540.2185559273,1495414540.2209649086,  0.1885, -0.2429, -0.4944,-101.0895,-82.7789, 81.5125
1495414540.2210440636,1495414540.2234530449,  0.1885, -0.2429, -0.4944,-70.8923,-86.8225, 88.3942
1495414540.2235319614,1495414540.2259418964,  0.1885, -0.2429, -0.4944,-70.8923,-86.8225, 88.3942
1495414540.2260200977,1495414540.2283709049,  0.2078, -0.5046, -0.5698,-70.8923,-86.8225, 88.3942
1495414540.2284500599,1495414540.2307360172,  0.2078, -0.5046, -0.5698,-70.8923,-86.8225, 88.3942
1495414540.2308139801,1495414540.2330999374,  0.2078, -0.5046, -0.5698,-70.8923,-86.4410, 92.7277
1495414540.2332830429,1495414540.2355680466,  0.2078, -0.5046, -0.5698,-30.3650,-86.4410, 92.7277
1495414540.2356479168,1495414540.2380731106,  0.2078, -0.5046, -0.5698,-30.3650,-86.4410, 92.7277
1495414540.2381529808,1495414540.2405629158,  0.2078, -0.5046, -0.5698,-30.3650,-86.4410, 92.7277
1495414540.2406420708,1495414540.2430489063,  0.2078, -0.5046, -0.5698,-30.3650,-86.4410, 92.7277
1495414540.2431290150,1495414540.2455329895,  0.2078, -0.5046, -0.5698, 10.9863,-78.3386, 93.2922
1495414540.2456119061,1495414540.2482008934,  0.3984, -0.7388, -0.6833, 10.9863,-78.3386, 93.2922
1495414540.2482810020,1495414540.2506499290,  0.3984, -0.7388, -0.6833, 10.9863,-78.3386, 93.2922
1495414540.2507278919,1495414540.2548279762,  0.3984, -0.7388, -0.6833, 41.9006,-63.9191, 89.2487
1495414540.2549109459,1495414540.2574710846,  0.3984, -0.7388, -0.6833, 41.9006,-63.9191, 89.2487
1495414540.2575590611,1495414540.2604010105,  0.3984, -0.7388, -0.6833, 41.9006,-63.9191, 89.2487
1495414540.2604830265,1495414540.2627620697,  0.3984, -0.7388, -0.6833, 41.9006,-63.9191, 89.2487
1495414540.2628409863,1495414540.2657270432,  0.3984, -0.7388, -0.6833, 53.9703,-48.6145, 82.0923
1495414540.2658090591,1495414540.2680890560,  0.2625, -0.6699, -0.7410, 53.9703,-48.6145, 82.0923
1495414540.2681679726,1495414540.2704420090,  0.2625, -0.6699, -0.7410, 53.9703,-48.6145, 82.0923
1495414540.2705221176,1495414540.2727990150,  0.2625, -0.6699, -0.7410, 53.9703,-48.6145, 82.0923
1495414540.2728779316,1495414540.2751560211,  0.2625, -0.6699, -0.7410, 53.9703,-36.8958, 80.3680
1495414540.2752339840,1495414540.2775208950,  0.2625, -0.6699, -0.7410, 38.9252,-38.8489, 80.3680
1495414540.2776000500,1495414540.2798841000,  0.2625, -0.6699, -0.7410, 38.9252,-38.8489, 80.3680
1495414540.2799630165,1495414540.2822449207,  0.2625, -0.6699, -0.7410, 38.9252,-38.8489, 80.3680
1495414540.2823240757,1495414540.2846050262,  0.2625, -0.6699, -0.7410, 38.9252,-38.8489, 80.3680
1495414540.2846829891,1495414540.2869729996,  0.2625, -0.6699, -0.6365, 13.8702,-37.4603, 83.3588
1495414540.2870531082,1495414540.2893319130,  0.0569, -0.4512, -0.6365, 13.8702,-37.4603, 83.3588
1495414540.2894120216,1495414540.2916901112,  0.0569, -0.4512, -0.6365, 13.8702,-37.4603, 83.3588
1495414540.2917690277,1495414540.2940449715,  0.0569, -0.4512, -0.6365, 13.8702,-37.4603, 83.3588
1495414540.2941238880,1495414540.2964079380,  0.0569, -0.4512, -0.6365, 13.8702,-41.3666, 88.7909
1495414540.2964880466,1495414540.2987680435,  0.0569, -0.4512, -0.6365,-19.4550,-41.0309, 88.7909
1495414540.2988479137,1495414540.3011240959,  0.0569, -0.4512, -0.6365,-19.4550,-41.0309, 88.7909
1495414540.3012039661,1495414540.3034811020,  0.0569, -0.4512, -0.6365,-19.4550,-41.0309, 88.7909
1495414540.3035609722,1495414540.3058381081,  0.0569, -0.4512, -0.6365,-19.4550,-41.0309, 88.7909
1495414540.3059170246,1495414540.3083269596,  0.0007, -0.3669, -0.4404,-60.5316,-45.2423, 90.9119
1495414540.3084070683,1495414540.3106880188,  0.0007, -0.3669, -0.4404,-60.5316,-45.2423, 90.9119
1495414540.3107669353,1495414540.3130478859,  0.0007, -0.3669, -0.4404,-60.5316,-45.2423, 90.9119
1495414540.3131260872,1495414540.3154110909,  0.0007, -0.3669, -0.4404,-60.5316,-45.2423, 90.9119
1495414540.3154900074,1495414540.3179180622,  0.0007, -0.3669, -0.4404,-76.3855,-47.3022, 86.8073
1495414540.3179979324,1495414540.3202788830,  0.0007, -0.3669, -0.4404,-76.3855,-47.3022, 86.8073
1495414540.3203580379,1495414540.3226349354,  0.0007, -0.3669, -0.4404,-76.3855,-47.3022, 86.8073
1495414540.3227140903,1495414540.3249890804,  0.0007, -0.3669, -0.4404,-76.3855,-47.3022, 86.8073
1495414540.3250679970,1495414540.3273510933,  0.0007, -0.5544, -0.5371,-76.3855,-47.3022, 86.8073
1495414540.3274300098,1495414540.3297080994, -0.0623, -0.5034, -0.5371,-63.1256,-50.7965, 76.5686
1495414540.3297879696,1495414540.3320651054, -0.0623, -0.5034, -0.5371,-63.1256,-50.7965, 76.5686
1495414540.3321440220,1495414540.3344209194, -0.0623, -0.5034, -0.5371,-63.1256,-50.7965, 76.5686
1495414540.3345000744,1495414540.3368220329, -0.0623, -0.5034, -0.5371,-63.1256,-50.7965, 76.5686
1495414540.3370130062,1495414540.3394200802, -0.0623, -0.5034, -0.5371,-37.4298,-55.7098, 68.8171
1495414540.3394999504,1495414540.3419120312, -0.0623, -0.5034, -0.5371,-37.4298,-55.7098, 68.8171
1495414540.3419909477,1495414540.3443999290, -0.0623, -0.5034, -0.5371,-37.4298,-55.7098, 68.8171
1495414540.3444800377,1495414540.3469040394, -0.0623, -0.5034, -0.6621,-37.4298,-55.7098, 68.8171
1495414540.3469829559,1495414540.3493919373, -0.0144, -0.7429, -0.6758,-37.4298,-56.7932, 64.5905
1495414540.3494720459,1495414540.3518760204, -0.0144, -0.7429, -0.6758, -3.9520,-56.7932, 64.5905
1495414540.3519539833,1495414540.3543610573, -0.0144, -0.7429, -0.6758, -3.9520,-56.7932, 64.5905
1495414540.3544380665,1495414540.3568890095, -0.0144, -0.7429, -0.6758, -3.9520,-56.7932, 64.5905
1495414540.3569669724,1495414540.3593769073, -0.0144, -0.7429, -0.6758, -3.9520,-56.7932, 59.4635
1495414540.3594539165,1495414540.3618600368, -0.0144, -0.7429, -0.6758, 26.9318,-56.3812, 59.4635
1495414540.3619389534,1495414540.3643450737, -0.0144, -0.7429, -0.6758, 26.9318,-56.3812, 59.4635
1495414540.3644239902,1495414540.3668780327, -0.0144, -0.7429, -0.6758, 26.9318,-56.3812, 59.4635
1495414540.3669569492,1495414540.3693649769, -0.0159, -0.8623, -0.7539, 26.9318,-56.3812, 59.4635
1495414540.3694450855,1495414540.3718559742, -0.0159, -0.8623, -0.7539, 42.8009,-52.3987, 51.1017
1495414540.3719360828,1495414540.3744480610, -0.0159, -0.8623, -0.7539, 42.8009,-52.3987, 51.1017
1495414540.3745288849,1495414540.3769190311, -0.0159, -0.8623, -0.7539, 42.8009,-52.3987, 51.1017
1495414540.3769989014,1495414540.3793880939, -0.0159, -0.8623, -0.7539, 42.8009,-52.3987, 51.1017
1495414540.3794679642,1495414540.3817539215, -0.0159, -0.8623, -0.7539, 43.6859,-44.5251, 41.0767
1495414540.3818330765,1495414540.3854100704, -0.0159, -0.8623, -0.7539, 43.6859,-44.5251, 41.0767
1495414540.3854920864,1495414540.3884520531, -0.0784, -0.7927, -0.7244, 43.6859,-44.5251, 41.0767
1495414540.3885331154,1495414540.3908140659, -0.1113, -0.7927, -0.7244, 43.6859,-44.5251, 41.0767
1495414540.3908929825,1495414540.3931779861, -0.1113, -0.7927, -0.7244, 34.5612,-39.0930, 31.7230
1495414540.3932569027,1495414540.3955590725, -0.1113, -0.7927, -0.7244, 34.5612,-39.0930, 31.7230
1495414540.3956389427,1495414540.3979249001, -0.1113, -0.7927, -0.7244, 34.5612,-39.0930, 31.7230
1495414540.3980050087,1495414540.4002850056, -0.1113, -0.7927, -0.7244, 34.5612,-39.0930, 31.7230
1495414540.4003639221,1495414540.4026451111, -0.1113, -0.7927, -0.7244, 18.0969,-42.4042, 26.6571
1495414540.4027240276,1495414540.4050951004, -0.1113, -0.7927, -0.7244, 18.0969,-42.4042, 26.6571
1495414540.4051740170,1495414540.4074740410, -0.1113, -0.6677, -0.5996, 18.0969,-42.4042, 26.6571
1495414540.4075539112,1495414540.4098329544, -0.2202, -0.6746, -0.5996, 18.0969,-42.4042, 26.6571
1495414540.4099109173,1495414540.4121921062, -0.2202, -0.6746, -0.5996, 18.0969,-42.4042, 26.6571
1495414540.4122710228,1495414540.4146509171, -0.2202, -0.6746, -0.5996,  5.3101,-55.7098, 25.4211
1495414540.4147291183,1495414540.4170620441, -0.2202, -0.6746, -0.5996,  5.3101,-55.7098, 25.4211
1495414540.4171390533,1495414540.4194149971, -0.2202, -0.6746, -0.5996,  5.3101,-55.7098, 25.4211
1495414540.4194910526,1495414540.4217679501, -0.2202, -0.6746, -0.5996,  5.3101,-55.7098, 25.4211
1495414540.4218449593,1495414540.4241559505, -0.2202, -0.6746, -0.5996, 10.4370,-71.6858, 28.8544
1495414540.4242351055,1495414540.4265658855, -0.2202, -0.6746, -0.5996, 10.4370,-71.6858, 28.8544
1495414540.4266450405,1495414540.4289269447, -0.2161, -0.5815, -0.6609, 10.4370,-71.6858, 28.8544
1495414540.4290060997,1495414540.4312870502, -0.2161, -0.5815, -0.6609, 10.4370,-71.6858, 28.8544
1495414540.4313659668,1495414540.4336440563, -0.2161, -0.5815, -0.6609, 10.4370,-79.4983, 33.6456
1495414540.4337229729,1495414540.4360060692, -0.2161, -0.5815, -0.6609, 32.1045,-78.2623, 33.6456
1495414540.4360849857,1495414540.4385399818, -0.2161, -0.5815, -0.6609, 32.1045,-78.2623, 33.6456
1495414540.4386188984,1495414540.4409010410, -0.2161, -0.5815, -0.6609, 32.1045,-78.2623, 33.6456
1495414540.4410929680,1495414540.4433801174, -0.2161, -0.5815, -0.6609, 32.1045,-78.2623, 33.6456
1495414540.4434599876,1495414540.4457409382, -0.2161, -0.5815, -0.6609, 58.6853,-73.9288, 37.8418
1495414540.4458189011,1495414540.4481339455, -0.1797, -0.5942, -0.8508, 58.6853,-73.9288, 37.8418
1495414540.4482131004,1495414540.4505000114, -0.1797, -0.5942, -0.8508, 58.6853,-73.9288, 37.8418
1495414540.4505789280,1495414540.4528660774, -0.1797, -0.5942, -0.8508, 58.6853,-73.9288, 37.8418
1495414540.4529449940,1495414540.4552290440, -0.1797, -0.5942, -0.8508, 82.1228,-61.4777, 40.2527
1495414540.4553079605,1495414540.4576249123, -0.1797, -0.5942, -0.8508, 85.2509,-61.4777, 40.2527
1495414540.4577040672,1495414540.4599809647, -0.1797, -0.5942, -0.8508, 85.2509,-61.4777, 40.2527
1495414540.4600598812,1495414540.4623379707, -0.1797, -0.5942, -0.8508, 85.2509,-61.4777, 40.2527
1495414540.4624159336,1495414540.4646921158, -0.1797, -0.5942, -0.8508, 85.2509,-61.4777, 40.2527
1495414540.4647710323,1495414540.4671320915, -0.1797, -0.5942, -0.9133,107.4982,-43.1976, 40.9698
1495414540.4672110081,1495414540.4696230888, -0.1357, -0.7109, -0.9353,107.4982,-43.1976, 40.9698
1495414540.4697020054,1495414540.4721100330, -0.1357, -0.7109, -0.9353,107.4982,-43.1976, 40.9698
1495414540.4721889496,1495414540.4746000767, -0.1357, -0.7109, -0.9353,107.4982,-43.1976, 40.9698
1495414540.4746780396,1495414540.4770629406, -0.1357, -0.7109, -0.9353,112.6404,-21.9269, 38.1470
1495414540.4771430492,1495414540.4794290066, -0.1357, -0.7109, -0.9353,112.6404,-21.9269, 38.1470
1495414540.4795091152,1495414540.4817919731, -0.1357, -0.7109, -0.9353,112.6404,-21.9269, 38.1470
1495414540.4818708897,1495414540.4841520786, -0.1357, -0.7109, -0.9353,112.6404,-21.9269, 38.1470
1495414540.4842300415,1495414540.4865500927, -0.1357, -0.7109, -0.9353,112.6404, -2.3956, 31.1737
1495414540.4866271019,1495414540.4890348911, -0.1956, -0.8049, -0.8708, 95.3522, -3.3112, 31.1737
1495414540.4891130924,1495414540.4915258884, -0.1956, -0.8049, -0.8708, 95.3522, -3.3112, 31.1737
1495414540.4916028976,1495414540.4940199852, -0.1956, -0.8049, -0.8708, 95.3522, -3.3112, 31.1737
1495414540.4940969944,1495414540.4965159893, -0.1956, -0.8049, -0.8708, 95.3522, -3.3112, 31.1737
1495414540.4965929985,1495414540.4989991188, -0.1956, -0.8049, -0.8708, 66.4520,  6.2408, 18.0054
1495414540.4990770817,1495414540.5014879704, -0.1956, -0.8049, -0.8708, 66.4520,  6.2408, 18.0054
1495414540.5015659332,1495414540.5040440559, -0.1956, -0.8049, -0.8708, 66.4520,  6.2408, 18.0054
1495414540.5041220188,1495414540.5065340996, -0.1956, -0.8049, -0.8708, 66.4520,  6.2408, 18.0054
1495414540.5070300102,1495414540.5094420910, -0.2634, -0.8030, -0.7109, 39.8102,  7.6599,  4.9286
1495414540.5095179081,1495414540.5119299889, -0.2634, -0.8030, -0.7109, 39.8102,  7.6599,  4.9286
1495414540.5120038986,1495414540.5144109726, -0.2634, -0.8030, -0.7109, 39.8102,  7.6599,  4.9286
1495414540.5144848824,1495414540.5169019699, -0.2634, -0.8030, -0.7109, 39.8102,  7.6599,  4.9286
1495414540.5169761181,1495414540.5193839073, -0.2634, -0.8030, -0.7109, 15.3503,  4.2419, -5.1880
1495414540.5194580555,1495414540.5218648911, -0.2634, -0.8030, -0.7109, 15.3503,  4.2419, -5.1880
1495414540.5219390392,1495414540.5243449211, -0.2634, -0.8030, -0.7109, 15.3503,  4.2419, -5.1880
1495414540.5244200230,1495414540.5268449783, -0.2634, -0.8030, -0.7109, 15.3503,  4.2419, -5.1880
1495414540.5269200802,1495414540.5292019844, -0.2959, -0.7795, -0.6023, -0.2747, -1.9379,-12.7563
1495414540.5292749405,1495414540.5315530300, -0.2959, -0.7795, -0.6023, -2.2888, -1.9379,-12.7563
1495414540.5316259861,1495414540.5339090824, -0.2959, -0.7795, -0.6023, -2.2888, -1.9379,-12.7563
1495414540.5339810848,1495414540.5363030434, -0.2959, -0.7795, -0.6023, -2.2888, -1.9379,-12.7563
1495414540.5363750458,1495414540.5386559963, -0.2959, -0.7795, -0.6023, -2.2888, -1.9379,-12.7563
1495414540.5387279987,1495414540.5410130024, -0.2959, -0.7795, -0.6023, -5.7068, -9.8724,-13.6108
1495414540.5410869122,1495414540.5433700085, -0.2959, -0.7795, -0.6023, -5.7068, -9.8724,-13.6108
1495414540.5435609818,1495414540.5458478928, -0.2959, -0.7795, -0.6023, -5.7068, -9.8724,-13.6108
1495414540.5459210873,1495414540.5482399464, -0.4834, -0.7434, -0.6648, -5.7068, -9.8724,-13.6108
1495414540.5483140945,1495414540.5505919456, -0.4995, -0.7434, -0.6648, -1.8311,-11.3373,  3.4180
1495414540.5506639481,1495414540.5535650253, -0.4995, -0.7434, -0.6648, -1.8311,-11.3373,  3.4180
1495414540.5536398888,1495414540.5559170246, -0.4995, -0.7434, -0.6648, -1.8311,-11.3373,  3.4180
1495414540.5559899807,1495414540.5601110458, -0.4995, -0.7434, -0.6648, -1.8311,-11.3373,  3.4180
1495414540.5601880550,1495414540.5624690056, -0.4995, -0.7434, -0.6648,-42.7551,  2.7008, 36.2244
1495414540.5625460148,1495414540.5648300648, -0.4995, -0.7434, -0.6648,-42.7551,  2.7008, 36.2244
1495414540.5649070740,1495414540.5672399998, -0.4995, -0.7434, -0.8523,-42.7551,  2.7008, 36.2244
1495414540.5673170090,1495414540.5695979595, -0.2280, -0.8169, -0.8591,-42.7551,  2.7008, 36.2244
1495414540.5696749687,1495414540.5719609261, -0.2280, -0.8169, -0.8591,-97.2595, 15.5792, 44.8456
1495414540.5720400810,1495414540.5743150711, -0.2280, -0.8169, -0.8591,-97.2595, 15.5792, 44.8456
1495414540.5743939877,1495414540.5767099857, -0.2280, -0.8169, -0.8591,-97.2595, 15.5792, 44.8456
1495414540.5767879486,1495414540.5790729523, -0.2280, -0.8169, -0.8591,-97.2595, 15.5792, 44.8456
1495414540.5791509151,1495414540.5814321041, -0.2280, -0.8169, -0.8591,-97.2595, 15.5792, 45.8221
1495414540.5815100670,1495414540.5837941170, -0.2280, -0.8169, -0.8591,-113.7695, 19.2413, 45.8221
1495414540.5838730335,1495414540.5861580372, -0.2280, -0.8169, -0.8591,-113.7695, 19.2413, 45.8221
1495414540.5863029957,1495414540.5885848999, -0.1721, -0.9341, -0.9351,-113.7695, 19.2413, 45.8221
1495414540.5886640549,1495414540.5909519196, -0.1721, -0.9341, -0.9351,-113.7695, 19.2413, 45.8221
1495414540.5910298824,1495414540.5933060646, -0.1721, -0.9341, -0.9351,-131.7749, 24.6429, 45.3033
1495414540.5933849812,1495414540.5956699848, -0.1721, -0.9341, -0.9351,-131.7749, 24.6429, 45.3033
1495414540.5957489014,1495414540.5980329514, -0.1721, -0.9341, -0.9351,-131.7749, 24.6429, 45.3033
1495414540.5981130600,1495414540.6003930569, -0.1721, -0.9341, -0.9351,-131.7749, 24.6429, 45.3033
1495414540.6004710197,1495414540.6027541161, -0.1721, -0.9341, -0.9351,-131.7749, 24.6429, 31.7841
1495414540.6028330326,1495414540.6051170826, -0.1721, -0.9341, -0.9351,-125.9613, 25.9552, 31.7841
1495414540.6051959991,1495414540.6075620651, -0.1721, -0.9341, -0.9062,-125.9613, 25.9552, 31.7841
1495414540.6076419353,1495414540.6099269390, -0.1228, -0.8745, -0.9062,-125.9613, 25.9552, 31.7841
1495414540.6100080013,1495414540.6122899055, -0.1228, -0.8745, -0.9062,-125.9613, 25.9552, 31.7841
1495414540.6123700142,1495414540.6146569252, -0.1228, -0.8745, -0.9062,-118.3777, 25.8636, 14.8773
1495414540.6147360802,1495414540.6171610355, -0.1228, -0.8745, -0.9062,-118.3777, 25.8636, 14.8773
1495414540.6172399521,1495414540.6195209026, -0.1228, -0.8745, -0.9062,-118.3777, 25.8636, 14.8773
1495414540.6195991039,1495414540.6218860149, -0.1228, -0.8745, -0.9062,-118.3777, 25.8636, 14.8773
1495414540.6219639778,1495414540.6242399216, -0.1228, -0.8745, -0.9062,-130.0964, 24.9939, -8.1329
1495414540.6243178844,1495414540.6266078949, -0.1228, -0.8745, -0.9062,-131.2408, 24.9939, -8.1329
1495414540.6266870499,1495414540.6289689541, -0.4929, -0.4907, -1.0288,-131.2408, 24.9939, -8.1329
1495414540.6290459633,1495414540.6313281059, -0.4929, -0.4907, -1.0288,-131.2408, 24.9939, -8.1329
1495414540.6314039230,1495414540.6336851120, -0.4929, -0.4907, -1.0288,-131.2408, 24.9939, -8.1329
1495414540.6337618828,1495414540.6360380650, -0.4929, -0.4907, -1.0288,-191.4062,-26.0468,-15.6097
1495414540.6361160278,1495414540.6384088993, -0.4929, -0.4907, -1.0288,-191.4062,-26.0468,-15.6097
1495414540.6384871006,1495414540.6407680511, -0.4929, -0.4907, -1.0288,-191.4062,-26.0468,-15.6097
1495414540.6408469677,1495414540.6431241035, -0.4929, -0.4907, -1.0288,-191.4062,-26.0468,-15.6097
1495414540.6433160305,1495414540.6456019878, -0.4929, -0.4907, -1.0288,-223.6786,-49.8352,  9.0790
1495414540.6456789970,1495414540.6480090618, -0.4929, -0.3472, -1.1372,-223.6786,-49.8352,  9.0790
1495414540.6480860710,1495414540.6503620148, -0.2783, -0.3472, -1.1372,-223.6786,-49.8352,  9.0790
1495414540.6504380703,1495414540.6527159214, -0.2783, -0.3472, -1.1372,-223.6786,-49.8352,  9.0790
1495414540.6527919769,1495414540.6550738811, -0.2783, -0.3472, -1.1372,-223.6786,-49.8352,  9.0790
1495414540.6551499367,1495414540.6575210094, -0.2783, -0.3472, -1.1372,-213.6688,-22.4609, 15.0146
1495414540.6575989723,1495414540.6598870754, -0.2783, -0.3472, -1.1372,-213.6688,-22.4609, 15.0146
1495414540.6599650383,1495414540.6623010635, -0.2783, -0.3472, -1.1372,-213.6688,-22.4609, 15.0146
1495414540.6623790264,1495414540.6646599770, -0.2783, -0.3472, -1.1372,-213.6688,-22.4609, 15.0146
1495414540.6647388935,1495414540.6671319008, -0.2783, -0.3472, -1.1372,-177.7802,-17.9749,  6.4240
1495414540.6672101021,1495414540.6694951057, -0.2478, -0.5664, -1.0437,-177.7802,-17.9749,  6.4240
1495414540.6695709229,1495414540.6719400883, -0.2478, -0.5664, -1.0437,-177.7802,-17.9749,  6.4240
1495414540.6721880436,1495414540.6744740009, -0.2478, -0.5664, -1.0437,-177.7802,-17.9749,  6.4240
1495414540.6745500565,1495414540.6771600246, -0.2478, -0.5664, -1.0437,-177.7802, -6.2561, -7.1106
1495414540.6772429943,1495414540.6795389652, -0.2478, -0.5664, -1.0437,-139.0686, -7.4768, -7.1106
1495414540.6796150208,1495414540.6818919182, -0.2478, -0.5664, -1.0437,-139.0686, -7.4768, -7.1106
1495414540.6819660664,1495414540.6842479706, -0.2478, -0.5664, -1.0437,-139.0686, -7.4768, -7.1106
1495414540.6843209267,1495414540.6866009235, -0.2478, -0.5664, -1.0437,-139.0686, -7.4768, -7.1106
1495414540.6866719723,1495414540.6889510155, -0.1328, -0.4768, -1.0723,-107.6813, -3.4790, -8.4381
1495414540.6890261173,1495414540.6913020611, -0.1328, -0.4768, -1.0723,-107.6813, -3.4790, -8.4381
1495414540.6913750172,1495414540.6936519146, -0.1328, -0.4768, -1.0723,-107.6813, -3.4790, -8.4381
1495414540.6937251091,1495414540.6960089207, -0.1328, -0.4768, -1.0723,-107.6813, -3.4790, -8.4381
1495414540.6960821152,1495414540.6983950138, -0.1328, -0.4768, -1.0723,-88.1500, -2.9907, -6.5765
1495414540.6984679699,1495414540.7007470131, -0.1328, -0.4768, -1.0723,-88.5010, -2.9907, -6.5765
1495414540.7008209229,1495414540.7030990124, -0.1328, -0.4768, -1.0723,-88.5010, -2.9907, -6.5765
1495414540.7031710148,1495414540.7054429054, -0.1328, -0.4768, -1.0723,-88.5010, -2.9907, -6.5765
1495414540.7055149078,1495414540.7078409195, -0.1328, -0.4768, -0.9629,-88.5010, -2.9907, -6.5765
1495414540.7079141140,1495414540.7101960182, -0.2620, -0.4211, -0.9629,-67.3676,  3.9368, -7.7362
1495414540.7102699280,1495414540.7125480175, -0.2620, -0.4211, -0.9629,-67.3676,  3.9368, -7.7362
1495414540.7126209736,1495414540.7149050236, -0.2620, -0.4211, -0.9629,-67.3676,  3.9368, -7.7362
1495414540.7149779797,1495414540.7172780037, -0.2620, -0.4211, -0.9629,-67.3676,  3.9368, -7.7362
1495414540.7173509598,1495414540.7196309566, -0.2620, -0.4211, -0.9629,-56.9153,  9.2010,-15.8081
1495414540.7197079659,1495414540.7219951153, -0.2620, -0.4211, -0.9629,-56.9153,  9.2010,-15.8081
1495414540.7220718861,1495414540.7243471146, -0.2620, -0.4211, -0.9629,-56.9153,  9.2010,-15.8081
1495414540.7244238853,1495414540.7268359661, -0.2620, -0.4211, -0.9629,-56.9153,  9.2010,-15.8081
1495414540.7269139290,1495414540.7292010784, -0.2104, -0.4092, -0.7939,-56.9153,  9.2010,-23.6206
1495414540.7292780876,1495414540.7315618992, -0.2104, -0.4092, -0.7939,-74.0509,  6.6223,-23.4833
1495414540.7316389084,1495414540.7339289188, -0.2104, -0.4092, -0.7939,-74.0509,  6.6223,-23.4833
1495414540.7340059280,1495414540.7364211082, -0.2104, -0.4092, -0.7939,-74.0509,  6.6223,-23.4833
1495414540.7364969254,1495414540.7389070988, -0.2104, -0.4092, -0.7939,-74.0509,  6.6223,-23.4833
1495414540.7389841080,1495414540.7413918972, -0.2104, -0.4092, -0.7939,-111.9080, -1.3885,-27.3895
1495414540.7414689064,1495414540.7438669205, -0.2104, -0.4092, -0.7939,-111.9080, -1.3885,-27.3895
1495414540.7440569401,1495414540.7465078831, -0.2104, -0.4092, -0.7939,-111.9080, -1.3885,-27.3895
1495414540.7465839386,1495414540.7489910126, -0.1506, -0.3940, -0.8325,-111.9080, -1.3885,-27.3895
1495414540.7490670681,1495414540.7514739037, -0.1506, -0.3940, -0.8325,-137.1002, -0.6104,-28.2135
1495414540.7515521049,1495414540.7539589405, -0.1506, -0.3940, -0.8325,-137.1002, -0.6104,-28.2135
1495414540.7540359497,1495414540.7564859390, -0.1506, -0.3940, -0.8325,-137.1002, -0.6104,-28.2135
1495414540.7565629482,1495414540.7590560913, -0.1506, -0.3940, -0.8325,-137.1002, -0.6104,-28.2135
1495414540.7591340542,1495414540.7614219189, -0.1506, -0.3940, -0.8325,-137.1002, 15.0146,-35.1410
1495414540.7615010738,1495414540.7637848854, -0.1506, -0.3940, -0.8325,-186.4471, 14.2365,-35.1410
1495414540.7638630867,1495414540.7661440372, -0.1506, -0.3940, -0.8325,-186.4471, 14.2365,-35.1410
1495414540.7662229538,1495414540.7687780857, -0.1401, -0.3191, -1.3518,-186.4471, 14.2365,-35.1410
1495414540.7688570023,1495414540.7712199688, -0.1401, -0.3191, -1.3518,-186.4471, 14.2365,-35.1410
1495414540.7712979317,1495414540.7743740082, -0.1401, -0.3191, -1.3518,-160.2173, -0.6714,-36.5448
1495414540.7744529247,1495414540.7768979073, -0.1401, -0.3191, -1.3518,-160.2173, -0.6714,-36.5448
1495414540.7769749165,1495414540.7792570591, -0.1401, -0.3191, -1.3518,-160.2173, -0.6714,-36.5448
1495414540.7793331146,1495414540.7816131115, -0.1401, -0.3191, -1.3518,-160.2173, -0.6714,-36.5448
1495414540.7816889286,1495414540.7839651108, -0.1401, -0.3191, -1.3518,-40.2527,-21.7285,-32.6996
1495414540.7840409279,1495414540.7863318920, -0.1401, -0.3191, -1.3518,-40.2527,-21.7285,-32.6996
1495414540.7864089012,1495414540.7886910439, -0.1204, -0.1079, -1.0825,-40.2527,-21.7285,-32.6996
1495414540.7887690067,1495414540.7910530567, -0.1204, -0.1079, -1.0825,-40.2527,-21.7285,-32.6996
1495414540.7911310196,1495414540.7934079170, -0.1204, -0.1079, -1.0825, 37.8723,  1.6479,-22.1252
1495414540.7934849262,1495414540.7957611084, -0.1204, -0.1079, -1.0825, 37.8265,  1.6479,-22.1252
1495414540.7958369255,1495414540.7981629372, -0.1204, -0.1079, -1.0825, 37.8265,  1.6479,-22.1252
1495414540.7982399464,1495414540.8005230427, -0.1204, -0.1079, -1.0825, 37.8265,  1.6479,-22.1252
1495414540.8005990982,1495414540.8028800488, -0.1204, -0.1079, -1.0825, 37.8265,  1.6479,-22.1252
1495414540.8029570580,1495414540.8052361012, -0.1204, -0.1079, -1.0825, 34.8969,  5.2338,-21.5912
1495414540.8053140640,1495414540.8076479435, -0.1204, -0.1079, -0.8950, 34.8969,  5.2338,-21.5912
1495414540.8077259064,1495414540.8099999428, -0.1536, -0.4102, -0.9224, 34.8969,  5.2338,-21.5912
1495414540.8100769520,1495414540.8123528957, -0.1536, -0.4102, -0.9224, 34.8969,  5.2338,-21.5912
1495414540.8124299049,1495414540.8147060871, -0.1536, -0.4102, -0.9224,-23.7274, -4.6082,-22.2321
1495414540.8147819042,1495414540.8172121048, -0.1536, -0.4102, -0.9224,-23.7274, -4.6082,-22.2321
1495414540.8172879219,1495414540.8195679188, -0.1536, -0.4102, -0.9224,-23.7274, -4.6082,-22.2321
1495414540.8196430206,1495414540.8219189644, -0.1536, -0.4102, -0.9224,-23.7274, -4.6082,-22.2321
1495414540.8219950199,1495414540.8242759705, -0.1536, -0.4102, -0.9224,-23.7274, -4.6082,-26.1383
1495414540.8243520260,1495414540.8268330097, -0.1536, -0.4102, -0.9224,-32.2876, -7.3547,-26.2299
1495414540.8269100189,1495414540.8293159008, -0.1362, -0.2891, -1.0481,-32.2876, -7.3547,-26.2299
1495414540.8293919563,1495414540.8318009377, -0.1362, -0.2891, -1.0481,-32.2876, -7.3547,-26.2299
1495414540.8318760395,1495414540.8342790604, -0.1362, -0.2891, -1.0481,-32.2876, -7.3547,-26.2299
1495414540.8343551159,1495414540.8367769718, -0.1362, -0.2891, -1.0481,-17.9901, -6.2714,-22.7661
1495414540.8368530273,1495414540.8392660618, -0.1362, -0.2891, -1.0481,-17.9901, -6.2714,-22.7661
1495414540.8393421173,1495414540.8417479992, -0.1362, -0.2891, -1.0481,-17.9901, -6.2714,-22.7661
1495414540.8418231010,1495414540.8442280293, -0.1362, -0.2891, -1.0481,-17.9901, -6.2714,-22.7661
1495414540.8443040848,1495414540.8467249870, -0.1362, -0.2891, -1.0481,-29.9835, -1.5717,-19.1040
1495414540.8469099998,1495414540.8493220806, -0.1311, -0.4006, -0.8896,-29.9835, -1.5717,-19.1040
1495414540.8493978977,1495414540.8518071175, -0.1311, -0.4006, -0.8896,-29.9835, -1.5717,-19.1040
1495414540.8518838882,1495414540.8542940617, -0.1311, -0.4006, -0.8896,-29.9835, -1.5717,-19.1040
1495414540.8543701172,1495414540.8567850590, -0.1311, -0.4006, -0.8896,-29.9835, -5.9662,-19.6991
1495414540.8568611145,1495414540.8592689037, -0.1311, -0.4006, -0.8896,-78.4149, -5.9662,-19.6991
1495414540.8593449593,1495414540.8618240356, -0.1311, -0.4006, -0.8896,-78.4149, -5.9662,-19.6991
1495414540.8619010448,1495414540.8641860485, -0.1311, -0.4006, -0.8896,-78.4149, -5.9662,-19.6991
1495414540.8642621040,1495414540.8666710854, -0.1311, -0.4006, -0.8896,-78.4149, -5.9662,-19.6991
1495414540.8667480946,1495414540.8690390587, -0.1343, -0.2979, -0.9778,-126.2054, -9.2773,-22.6440
1495414540.8691170216,1495414540.8714098930, -0.1343, -0.2979, -0.9778,-126.2054, -9.2773,-22.6440
1495414540.8714869022,1495414540.8740200996, -0.1343, -0.2979, -0.9778,-126.2054, -9.2773,-22.6440
1495414540.8740990162,1495414540.8763790131, -0.1343, -0.2979, -0.9778,-126.2054, -9.2773,-22.6440
1495414540.8764569759,1495414540.8787379265, -0.1343, -0.2979, -0.9778,-151.2756,-10.5896,-22.0490
1495414540.8788158894,1495414540.8810920715, -0.1343, -0.2979, -0.9778,-151.2756,-10.5896,-22.0490
1495414540.8811700344,1495414540.8834559917, -0.1343, -0.2979, -0.9778,-151.2756,-10.5896,-22.0490
1495414540.8835339546,1495414540.8858110905, -0.1343, -0.2979, -0.9778,-151.2756,-10.5896,-22.0490
1495414540.8858890533,1495414540.8882150650, -0.1343, -0.2354, -1.0430,-151.2756,-10.5896,-16.5863
1495414540.8882939816,1495414540.8905789852, -0.1252, -0.1948, -1.0430,-154.5410, -9.9487,-16.5863
1495414540.8906550407,1495414540.8929400444, -0.1252, -0.1948, -1.0430,-154.5410, -9.9487,-16.5863
1495414540.8930160999,1495414540.8953020573, -0.1252, -0.1948, -1.0430,-154.5410, -9.9487,-16.5863
1495414540.8953769207,1495414540.8976659775, -0.1252, -0.1948, -1.0430,-154.5410, -9.9487,-16.5863
1495414540.8977429867,1495414540.9002768993, -0.1252, -0.1948, -1.0430,-151.3672, -9.0637,-10.4218
1495414540.9003551006,1495414540.9026379585, -0.1252, -0.1948, -1.0430,-151.3672, -9.0637,-10.4218
1495414540.9027140141,1495414540.9049930573, -0.1252, -0.1948, -1.0430,-151.3672, -9.0637,-10.4218
1495414540.9050691128,1495414540.9073519707, -0.1252, -0.1948, -1.0430,-151.3672, -9.0637,-10.4218
1495414540.9074280262,1495414540.9097108841, -0.1514, -0.1731, -1.0137,-163.0859,-10.6659, -6.3019
1495414540.9097869396,1495414540.9120650291, -0.1514, -0.1731, -1.0137,-162.6892,-10.6659, -6.3019
1495414540.9121398926,1495414540.9144220352, -0.1514, -0.1731, -1.0137,-162.6892,-10.6659, -6.3019
1495414540.9144968987,1495414540.9168150425, -0.1514, -0.1731, -1.0137,-162.6892,-10.6659, -6.3019
1495414540.9168920517,1495414540.9191730022, -0.1514, -0.1731, -1.0137,-162.6892,-10.6659, -6.3019
1495414540.9192490578,1495414540.9215331078, -0.1514, -0.1731, -1.0137,-167.1143, -9.7046, -5.4169
1495414540.9216070175,1495414540.9238860607, -0.1514, -0.1731, -1.0137,-167.1143, -9.7046, -5.4169
1495414540.9239590168,1495414540.9263949394, -0.1514, -0.1731, -1.0137,-167.1143, -9.7046, -5.4169
1495414540.9264690876,1495414540.9287540913, -0.1514, -0.0195, -1.1453,-167.1143, -9.7046, -5.4169
1495414540.9288289547,1495414540.9311079979, -0.1414, -0.0195, -1.1453,-114.6545, -5.6763, -3.8300
1495414540.9311809540,1495414540.9334650040, -0.1414, -0.0195, -1.1453,-114.6545, -5.6763, -3.8300
1495414540.9335379601,1495414540.9358179569, -0.1414, -0.0195, -1.1453,-114.6545, -5.6763, -3.8300
1495414540.9358909130,1495414540.9382090569, -0.1414, -0.0195, -1.1453,-114.6545, -5.6763, -3.8300
1495414540.9382820129,1495414540.9405689240, -0.1414, -0.0195, -1.1453,-114.6545, -5.6763, -3.8300
1495414540.9406430721,1495414540.9429240227, -0.1414, -0.0195, -1.1453,-70.1599, -4.8828, -3.4027
1495414540.9429969788,1495414540.9452810287, -0.1414, -0.0195, -1.1453,-70.1599, -4.8828, -3.4027
1495414540.9454710484,1495414540.9478600025, -0.1414, -0.0195, -1.0828,-70.1599, -4.8828, -3.4027
1495414540.9479329586,1495414540.9502139091, -0.1450, -0.0139, -1.1223,-70.1599, -4.8828, -3.4027
1495414540.9502859116,1495414540.9525721073, -0.1450, -0.0139, -1.1223,-33.1116, -1.4496, -4.6234
1495414540.9526441097,1495414540.9549229145, -0.1450, -0.0139, -1.1223,-33.1116, -1.4496, -4.6234
1495414540.9549939632,1495414540.9572799206, -0.1450, -0.0139, -1.1223,-33.1116, -1.4496, -4.6234
1495414540.9573509693,1495414540.9596390724, -0.1450, -0.0139, -1.1223,-33.1116, -1.4496, -4.6234
1495414540.9597110748,1495414540.9619901180, -0.1450, -0.0139, -1.1223,-33.1116, -1.4496, -5.3711
1495414540.9620609283,1495414540.9643380642, -0.1450, -0.0139, -1.1223, -2.8076, -1.3885, -5.3711
1495414540.9644060135,1495414540.9668869972, -0.1450, -0.0139, -1.1223, -2.8076, -1.3885, -5.3711
1495414540.9669570923,1495414540.9692380428, -0.1511, -0.0430, -1.0984, -2.8076, -1.3885, -5.3711
1495414540.9693078995,1495414540.9715890884, -0.1511, -0.0430, -1.0984, -2.8076, -1.3885, -5.3711
1495414540.9716570377,1495414540.9743568897, -0.1511, -0.0430, -1.0984, 20.0958, -0.6256, -5.7373
1495414540.9744350910,1495414540.9767239094, -0.1511, -0.0430, -1.0984, 20.0958, -0.6256, -5.7373
1495414540.9767980576,1495414540.9790790081, -0.1511, -0.0430, -1.0984, 20.0958, -0.6256, -5.7373
1495414540.9791541100,1495414540.9814310074, -0.1511, -0.0430, -1.0984, 20.0958, -0.6256, -5.7373
1495414540.9815049171,1495414540.9837820530, -0.1511, -0.0430, -1.0984, 39.6271,  0.2136, -5.9357
1495414540.9838569164,1495414540.9861369133, -0.1511, -0.0430, -1.0984, 39.6881,  0.2136, -5.9357
1495414540.9862120152,1495414540.9884951115, -0.1511, -0.0754, -1.0835, 39.6881,  0.2136, -5.9357
1495414540.9885699749,1495414540.9910979271, -0.1370, -0.0754, -1.0835, 39.6881,  0.2136, -5.9357
1495414540.9911749363,1495414540.9934549332, -0.1370, -0.0754, -1.0835, 39.6881,  0.2136, -5.9357
1495414540.9935290813,1495414540.9958119392, -0.1370, -0.0754, -1.0835, 52.0782, -1.0681, -6.5613
1495414540.9958839417,1495414540.9982109070, -0.1370, -0.0754, -1.0835, 52.0782, -1.0681, -6.5613
1495414540.9982850552,1495414541.0005650520, -0.1370, -0.0754, -1.0835, 52.0782, -1.0681, -6.5613
1495414541.0006389618,1495414541.0029249191, -0.1370, -0.0754, -1.0835, 52.0782, -1.0681, -6.5613
1495414541.0029981136,1495414541.0052750111, -0.1370, -0.0754, -1.0835, 53.9398, -0.3052, -7.9041
1495414541.0053501129,1495414541.0076580048, -0.1370, -0.0754, -1.0835, 53.9398, -0.3052, -7.9041
1495414541.0077340603,1495414541.0100190639, -0.1409, -0.1372, -1.0415, 53.9398, -0.3052, -7.9041
1495414541.0100929737,1495414541.0123710632, -0.1409, -0.1372, -1.0415, 53.9398, -0.3052, -7.9041
1495414541.0124459267,1495414541.0147230625, -0.1409, -0.1372, -1.0415, 53.9398, -0.3052, -7.9041
1495414541.0147969723,1495414541.0170919895, -0.1409, -0.1372, -1.0415, 43.5486, -0.7324, -9.1705
1495414541.0171670914,1495414541.0194420815, -0.1409, -0.1372, -1.0415, 43.5486, -0.7324, -9.1705
1495414541.0195169449,1495414541.0218019485, -0.1409, -0.1372, -1.0415, 43.5486, -0.7324, -9.1705
1495414541.0218770504,1495414541.0241599083, -0.1409, -0.1372, -1.0415, 43.5486, -0.7324, -9.1705
1495414541.0242340565,1495414541.0265660286, -0.1409, -0.1372, -1.0415, 30.2124, -2.5024, -9.7961
1495414541.0266408920,1495414541.0289249420, -0.1409, -0.1504, -1.0371, 30.2124, -2.5024, -9.7961
1495414541.0290000439,1495414541.0312790871, -0.1426, -0.1504, -1.0371, 30.2124, -2.5024, -9.7961
1495414541.0313529968,1495414541.0336339474, -0.1426, -0.1504, -1.0371, 30.2124, -2.5024, -9.7961
1495414541.0337069035,1495414541.0359849930, -0.1426, -0.1504, -1.0371, 30.2124, -2.5024, -8.7738
1495414541.0360589027,1495414541.0384991169, -0.1426, -0.1504, -1.0371, 20.1721, -2.9602, -8.7738
1495414541.0385730267,1495414541.0408580303, -0.1426, -0.1504, -1.0371, 20.1721, -2.9602, -8.7738
1495414541.0409309864,1495414541.0432078838, -0.1426, -0.1504, -1.0371, 20.1721, -2.9602, -8.7738
1495414541.0432820320,1495414541.0455560684, -0.1426, -0.1504, -1.0371, 20.1721, -2.9602, -8.7738
1495414541.0457389355,1495414541.0481629372, -0.1426, -0.1504, -1.0334,  9.6436, -4.0283, -9.0179
1495414541.0482339859,1495414541.0505108833, -0.1536, -0.1492, -1.0334,  9.6436, -4.0283, -9.0179
1495414541.0505828857,1495414541.0528669357, -0.1536, -0.1492, -1.0334,  9.6436, -4.0283, -9.0179
1495414541.0529379845,1495414541.0552189350, -0.1536, -0.1492, -1.0334,  9.6436, -4.0283, -9.0179
1495414541.0552890301,1495414541.0576140881, -0.1536, -0.1492, -1.0334,  9.6436, -5.2643,-10.0555
1495414541.0576879978,1495414541.0599720478, -0.1536, -0.1492, -1.0334,  0.1831, -5.2643,-10.0555
1495414541.0600450039,1495414541.0623259544, -0.1536, -0.1492, -1.0334,  0.1831, -5.2643,-10.0555
1495414541.0623989105,1495414541.0646779537, -0.1536, -0.1492, -1.0334,  0.1831, -5.2643,-10.0555
1495414541.0649249554,1495414541.0674331188, -0.1536, -0.1492, -1.0334,  0.1831, -5.2643,-10.0555
1495414541.0675079823,1495414541.0698740482, -0.1531, -0.1382, -1.0488, -5.5084, -4.9591, -9.4299
1495414541.0699439049,1495414541.0733609200, -0.1531, -0.1382, -1.0488, -5.5084, -4.9591, -9.4299
1495414541.0734341145,1495414541.0757110119, -0.1531, -0.1382, -1.0488, -5.5084, -4.9591, -9.4299
1495414541.0757811069,1495414541.0782070160, -0.1531, -0.1382, -1.0488, -5.5084, -4.9591, -8.0414
1495414541.0782780647,1495414541.0805559158, -0.1531, -0.1382, -1.0488, -5.8136, -3.3264, -8.0414
1495414541.0806250572,1495414541.0828990936, -0.1531, -0.1382, -1.0488, -5.8136, -3.3264, -8.0414
1495414541.0829679966,1495414541.0852460861, -0.1531, -0.1382, -1.0488, -5.8136, -3.3264, -8.0414
1495414541.0853149891,1495414541.0876450539, -0.1531, -0.1382, -1.0488, -5.8136, -3.3264, -8.0414
1495414541.0877149105,1495414541.0899960995, -0.1541, -0.1311, -1.0544, -3.6011, -2.3499, -7.1259
1495414541.0900640488,1495414541.0923390388, -0.1541, -0.1311, -1.0544, -3.6011, -2.3499, -7.1259
1495414541.0924079418,1495414541.0946888924, -0.1541, -0.1311, -1.0544, -3.6011, -2.3499, -7.1259
1495414541.0947580338,1495414541.0970809460, -0.1541, -0.1311, -1.0544, -3.6011, -2.3499, -7.1259
1495414541.0971500874,1495414541.0994300842, -0.1541, -0.1311, -1.0544, -3.6011, -2.3499, -6.8665
1495414541.0994980335,1495414541.1017711163, -0.1541, -0.1311, -1.0544, -1.7853, -2.1973, -6.8665
1495414541.1018390656,1495414541.1041169167, -0.1541, -0.1311, -1.0544, -1.7853, -2.1973, -6.8665
1495414541.1041851044,1495414541.1065139771, -0.1541, -0.1311, -1.0544, -1.7853, -2.1973, -6.8665
1495414541.1065831184,1495414541.1088569164, -0.1541, -0.1299, -1.0532, -1.7853, -2.1973, -6.8665
1495414541.1089260578,1495414541.1112051010, -0.1475, -0.1299, -1.0532,  0.9003, -2.4414, -7.8125
1495414541.1112759113,1495414541.1135540009, -0.1475, -0.1299, -1.0532,  0.9003, -2.4414, -7.8125
1495414541.1136240959,1495414541.1159000397, -0.1475, -0.1299, -1.0532,  0.9003, -2.4414, -7.8125
1495414541.1159689426,1495414541.1183300018, -0.1475, -0.1299, -1.0532,  0.9003, -2.4414, -7.8125
1495414541.1184020042,1495414541.1206750870, -0.1475, -0.1299, -1.0532,  0.9003, -2.4414, -8.2703
1495414541.1207470894,1495414541.1230239868, -0.1475, -0.1299, -1.0532,  4.0741, -2.8381, -8.2703
1495414541.1230940819,1495414541.1253681183, -0.1475, -0.1299, -1.0532,  4.0741, -2.8381, -8.2703
1495414541.1254379749,1495414541.1278541088, -0.1475, -0.1299, -1.0532,  4.0741, -2.8381, -8.2703
1495414541.1279249191,1495414541.1302061081, -0.1494, -0.1438, -1.0398,  4.0741, -2.8381, -8.2703
1495414541.1302759647,1495414541.1325531006, -0.1494, -0.1438, -1.0398,  6.2714, -2.4872, -7.4615
1495414541.1326210499,1495414541.1348960400, -0.1494, -0.1438, -1.0398,  6.2714, -2.4872, -7.4615
1495414541.1349639893,1495414541.1372699738, -0.1494, -0.1438, -1.0398,  6.2714, -2.4872, -7.4615
1495414541.1373379230,1495414541.1396141052, -0.1494, -0.1438, -1.0398,  6.2714, -2.4872, -7.4615
1495414541.1396820545,1495414541.1419560909, -0.1494, -0.1438, -1.0398,  6.2714, -2.4872, -6.6071
1495414541.1420249939,1495414541.1442990303, -0.1494, -0.1438, -1.0398,  6.6223, -1.8616, -6.6071
1495414541.1443669796,1495414541.1467149258, -0.1494, -0.1438, -1.0398,  6.6223, -1.8616, -6.6071
1495414541.1468949318,1495414541.1492979527, -0.1494, -0.1521, -1.0442,  6.6223, -1.8616, -6.6071
1495414541.1493670940,1495414541.1517729759, -0.1477, -0.1521, -1.0442,  6.6223, -1.8616, -6.6071
1495414541.1518409252,1495414541.1542479992, -0.1477, -0.1521, -1.0442,  5.1270, -1.3275, -5.9662
1495414541.1543169022,1495414541.1567149162, -0.1477, -0.1521, -1.0442,  5.1270, -1.3275, -5.9662
1495414541.1567840576,1495414541.1590700150, -0.1477, -0.1521, -1.0442,  5.1270, -1.3275, -5.9662
1495414541.1591401100,1495414541.1614210606, -0.1477, -0.1521, -1.0442,  5.1270, -1.3275, -5.9662
1495414541.1614899635,1495414541.1637649536, -0.1477, -0.1521, -1.0442,  3.7537, -1.5564, -5.5237
1495414541.1638340950,1495414541.1661119461, -0.1477, -0.1521, -1.0442,  3.7537, -1.5564, -5.5237
1495414541.1661810875,1495414541.1686530113, -0.1477, -0.1521, -1.0493,  3.7537, -1.5564, -5.5237
1495414541.1687219143,1495414541.1711258888, -0.1487, -0.1514, -1.0493,  3.7537, -1.5564, -5.5237
1495414541.1711950302,1495414541.1736021042, -0.1487, -0.1514, -1.0493,  3.7537, -1.5564, -5.4474
1495414541.1736700535,1495414541.1760799885, -0.1487, -0.1514, -1.0493,  2.1515, -1.5717, -5.4474
1495414541.1761488914,1495414541.1785640717, -0.1487, -0.1514, -1.0493,  2.1515, -1.5717, -5.4474
1495414541.1786320210,1495414541.1810419559, -0.1487, -0.1514, -1.0493,  2.1515, -1.5717, -5.4474
1495414541.1811120510,1495414541.1836080551, -0.1487, -0.1514, -1.0493,  2.1515, -1.5717, -5.4474
1495414541.1836779118,1495414541.1860730648, -0.1487, -0.1514, -1.0493,  0.3204, -1.6632, -5.7526
1495414541.1861429214,1495414541.1892690659, -0.1487, -0.1514, -1.0569,  0.3204, -1.6632, -5.7526
1495414541.1893410683,1495414541.1916151047, -0.1436, -0.1602, -1.0569,  0.3204, -1.6632, -5.7526
1495414541.1916859150,1495414541.1939630508, -0.1436, -0.1602, -1.0569,  0.3204, -1.6632, -5.7526
1495414541.1940319538,1495414541.1963489056, -0.1436, -0.1602, -1.0569, -0.8240, -1.6327, -5.5695
1495414541.1964199543,1495414541.1986989975, -0.1436, -0.1602, -1.0569, -0.8240, -1.6327, -5.5695
1495414541.1987690926,1495414541.2010490894, -0.1436, -0.1602, -1.0569, -0.8240, -1.6327, -5.5695
1495414541.2011179924,1495414541.2033960819, -0.1436, -0.1602, -1.0569, -0.8240, -1.6327, -5.5695
1495414541.2034649849,1495414541.2057468891, -0.1436, -0.1602, -1.0569, -0.8240, -1.3733, -5.2643
1495414541.2058160305,1495414541.2080979347, -0.1436, -0.1602, -1.0569, -1.9531, -1.3733, -5.2643
1495414541.2081658840,1495414541.2104449272, -0.1528, -0.1550, -1.0554, -1.9531, -1.3733, -5.2643
1495414541.2105131149,1495414541.2127919197, -0.1528, -0.1550, -1.0554, -1.9531, -1.3733, -5.2643
1495414541.2128589153,1495414541.2151370049, -0.1528, -0.1550, -1.0554, -1.9531, -1.3733, -5.2643
1495414541.2152049541,1495414541.2174909115, -0.1528, -0.1550, -1.0554, -4.7760, -1.6785, -5.1422
1495414541.2175610065,1495414541.2198429108, -0.1528, -0.1550, -1.0554, -4.7760, -1.6785, -5.1422
1495414541.2199120522,1495414541.2221910954, -0.1528, -0.1550, -1.0554, -4.7760, -1.6785, -5.1422
1495414541.2222599983,1495414541.2245409489, -0.1528, -0.1550, -1.0554, -4.7760, -1.6785, -5.1422
1495414541.2246100903,1495414541.2269160748, -0.1528, -0.1550, -1.0554, -4.7760, -1.4496, -4.8370
1495414541.2269859314,1495414541.2292630672, -0.1528, -0.1582, -1.0405, -6.9275, -1.4496, -4.8370
1495414541.2293319702,1495414541.2316119671, -0.1504, -0.1582, -1.0405, -6.9275, -1.4496, -4.8370
1495414541.2316799164,1495414541.2339599133, -0.1504, -0.1582, -1.0405, -6.9275, -1.4496, -4.8370
1495414541.2340281010,1495414541.2364509106, -0.1504, -0.1582, -1.0405, -6.9275, -1.4496, -4.8370
1495414541.2365210056,1495414541.2388050556, -0.1504, -0.1582, -1.0405, -9.6893, -2.0142, -4.6844
1495414541.2388739586,1495414541.2411561012, -0.1504, -0.1582, -1.0405, -9.6893, -2.0142, -4.6844
1495414541.2412259579,1495414541.2435081005, -0.1504, -0.1582, -1.0405, -9.6893, -2.0142, -4.6844
1495414541.2435779572,1495414541.2458651066, -0.1504, -0.1582, -1.0405, -9.6893, -2.0142, -4.6844
1495414541.2460350990,1495414541.2485990524, -0.1504, -0.1582, -1.0388,-12.8784, -2.4872, -5.0507
1495414541.2486729622,1495414541.2510778904, -0.1492, -0.1562, -1.0388,-12.8784, -2.4872, -5.0507
1495414541.2511510849,1495414541.2535529137, -0.1492, -0.1562, -1.0388,-12.8784, -2.4872, -5.0507
1495414541.2536261082,1495414541.2560310364, -0.1492, -0.1562, -1.0388,-12.8784, -2.4872, -5.0507
1495414541.2561039925,1495414541.2584090233, -0.1492, -0.1562, -1.0388,-12.8784, -1.8768, -4.3335
1495414541.2584819794,1495414541.2607710361, -0.1492, -0.1562, -1.0388,-18.1274, -1.8768, -4.3335
1495414541.2608439922,1495414541.2631299496, -0.1492, -0.1562, -1.0388,-18.1274, -1.8768, -4.3335
1495414541.2632040977,1495414541.2654879093, -0.1492, -0.1562, -1.0388,-18.1274, -1.8768, -4.3335
1495414541.2655599117,1495414541.2679510117, -0.1492, -0.1562, -1.0388,-18.1274, -1.8768, -4.3335
1495414541.2680249214,1495414541.2704849243, -0.1448, -0.1484, -1.0457,-20.4926, -1.8463, -4.0131
1495414541.2705581188,1495414541.2728478909, -0.1448, -0.1484, -1.0457,-20.4926, -1.8463, -4.0131
1495414541.2729198933,1495414541.2752060890, -0.1448, -0.1484, -1.0457,-20.4926, -1.8463, -4.0131
1495414541.2752780914,1495414541.2777900696, -0.1448, -0.1484, -1.0457,-20.4926, -1.8463, -4.0131
1495414541.2778630257,1495414541.2802309990, -0.1448, -0.1484, -1.0457,-22.1100, -1.4343, -3.7994
1495414541.2803039551,1495414541.2836539745, -0.1448, -0.1484, -1.0457,-22.1100, -1.4343, -3.7994
1495414541.2837300301,1495414541.2860050201, -0.1448, -0.1484, -1.0457,-22.1100, -1.4343, -3.7994
1495414541.2860789299,1495414541.2884280682, -0.1448, -0.1484, -1.0457,-22.1100, -1.4343, -3.7994
1495414541.2885019779,1495414541.2907810211, -0.1541, -0.1309, -1.0515,-21.8048, -0.8392, -4.3488
1495414541.2908539772,1495414541.2931320667, -0.1541, -0.1309, -1.0515,-21.8048, -0.8392, -4.3488
1495414541.2932050228,1495414541.2954909801, -0.1541, -0.1309, -1.0515,-21.8048, -0.8392, -4.3488
1495414541.2955639362,1495414541.2978520393, -0.1541, -0.1309, -1.0515,-21.8048, -0.8392, -4.3488
1495414541.2979259491,1495414541.3002018929, -0.1541, -0.1309, -1.0515,-21.8048, -0.8392, -5.0201
1495414541.3002760410,1495414541.3025588989, -0.1541, -0.1309, -1.0515,-19.1956,  0.0305, -5.0201
1495414541.3026330471,1495414541.3049130440, -0.1541, -0.1309, -1.0515,-19.1956,  0.0305, -5.0201
1495414541.3049879074,1495414541.3074860573, -0.1541, -0.1309, -1.0515,-19.1956,  0.0305, -5.0201
1495414541.3075599670,1495414541.3098421097, -0.1521, -0.1260, -1.0615,-19.1956,  0.0305, -5.0201
1495414541.3099160194,1495414541.3121919632, -0.1521, -0.1260, -1.0615,-15.6555, -0.0610, -4.9896
1495414541.3122661114,1495414541.3145530224, -0.1521, -0.1260, -1.0615,-15.6555, -0.0610, -4.9896
1495414541.3146259785,1495414541.3169260025, -0.1521, -0.1260, -1.0615,-15.6555, -0.0610, -4.9896
1495414541.3169999123,1495414541.3192870617, -0.1521, -0.1260, -1.0615,-15.6555, -0.0610, -4.9896
1495414541.3193609715,1495414541.3216509819, -0.1521, -0.1260, -1.0615,-15.6555, -0.0610, -4.5166
1495414541.3217248917,1495414541.3240048885, -0.1521, -0.1260, -1.0615,-11.5204, -0.6866, -4.5166
1495414541.3240780830,1495414541.3264350891, -0.1521, -0.1260, -1.0615,-11.5204, -0.6866, -4.5166
1495414541.3265080452,1495414541.3287959099, -0.1521, -0.1260, -1.0615,-11.5204, -0.6866, -4.5166
1495414541.3288691044,1495414541.3311529160, -0.1465, -0.1260, -1.0615,-11.5204, -0.6866, -4.5166
1495414541.3312261105,1495414541.3335180283, -0.1465, -0.1260, -1.0615, -9.4604, -0.4425, -5.0049
1495414541.3335890770,1495414541.3358740807, -0.1465, -0.1260, -1.0615, -9.4604, -0.4425, -5.0049
1495414541.3359439373,1495414541.3384521008, -0.1465, -0.1260, -1.0615, -9.4604, -0.4425, -5.0049
1495414541.3385229111,1495414541.3409318924, -0.1465, -0.1260, -1.0615, -9.4604, -0.4425, -5.0049
1495414541.3410029411,1495414541.3434100151, -0.1465, -0.1260, -1.0615, -7.9803, -0.2899, -5.6000
1495414541.3434801102,1495414541.3458940983, -0.1465, -0.1260, -1.0615, -7.9803, -0.2899, -5.6000
1495414541.3459630013,1495414541.3483810425, -0.1465, -0.1260, -1.0615, -7