timestamp_before,timestamp_after,accel_x,accel_y,accel_z,gyro_x,gyro_y,gryo_z
1496546327.0268630981,1496546327.0291500092, -1.1213, -0.1770, -0.2622, -0.8392,  0.0305,-49.4385
1496546327.0292398930,1496546327.0315959454, -1.1213, -0.1770, -0.2622, -1.1444,  0.2289,-49.1333
1496546327.0316720009,1496546327.0339610577, -1.1213, -0.1770, -0.2622, -1.1444,  0.2289,-49.1333
1496546327.0340359211,1496546327.0363180637, -1.1213, -0.1770, -0.2622, -1.1444,  0.2289,-49.1333
1496546327.0363900661,1496546327.0386769772, -1.1213, -0.1770, -0.2622, -1.1444,  0.2289,-49.1333
1496546327.0387499332,1496546327.0411388874, -1.1213, -0.1770, -0.2622, -1.1444,  0.2289,-49.0723
1496546327.0412130356,1496546327.0436348915, -1.1213, -0.1770, -0.2622, -0.0916,  1.0223,-49.0723
1496546327.0437109470,1496546327.0459969044, -1.1213, -0.1770, -0.2622, -0.0916,  1.0223,-49.0723
1496546327.0460710526,1496546327.0483570099, -1.1213, -0.1770, -0.2561, -0.0916,  1.0223,-49.0723
1496546327.0484309196,1496546327.0507409573, -1.0894, -0.1965, -0.2561, -0.0916,  1.0223,-49.0723
1496546327.0508160591,1496546327.0532400608, -1.0894, -0.1965, -0.2561,  2.0142,  1.0681,-47.1039
1496546327.0533139706,1496546327.0557029247, -1.0894, -0.1965, -0.2561,  2.0142,  1.0681,-47.1039
1496546327.0557770729,1496546327.0580589771, -1.0894, -0.1965, -0.2561,  2.0142,  1.0681,-47.1039
1496546327.0581309795,1496546327.0604100227, -1.0894, -0.1965, -0.2561,  2.0142,  1.0681,-47.1039
1496546327.0604829788,1496546327.0629599094, -1.0894, -0.1965, -0.2561,  2.0142,  1.5259,-46.6919
1496546327.0630340576,1496546327.0653259754, -1.0894, -0.1965, -0.2561,  3.8300,  1.5259,-46.6919
1496546327.0653979778,1496546327.0676839352, -1.0894, -0.1965, -0.2561,  3.8300,  1.5259,-46.6919
1496546327.0677568913,1496546327.0700459480, -1.0940, -0.1951, -0.2620,  3.8300,  1.5259,-46.6919
1496546327.0701189041,1496546327.0726249218, -1.0940, -0.1951, -0.2620,  3.8300,  1.5259,-50.5981
1496546327.0727000237,1496546327.0751109123, -1.0940, -0.1951, -0.2620,  5.0964,  1.5869,-47.5006
1496546327.0751841068,1496546327.0775930882, -1.0940, -0.1951, -0.2620,  5.0964,  1.5869,-47.5006
1496546327.0776660442,1496546327.0800740719, -1.0940, -0.1951, -0.2620,  5.0964,  1.5869,-47.5006
1496546327.0801460743,1496546327.0825650692, -1.0940, -0.1951, -0.2620,  5.0964,  1.5869,-47.5006
1496546327.0826389790,1496546327.0850520134, -1.0940, -0.1951, -0.2620,  6.3171,  1.3275,-48.4009
1496546327.0851259232,1496546327.0875339508, -1.0940, -0.1951, -0.2620,  6.3171,  1.3275,-48.4009
1496546327.0876080990,1496546327.0900230408, -1.0864, -0.1824, -0.2937,  6.3171,  1.3275,-48.4009
1496546327.0900959969,1496546327.0925199986, -1.0864, -0.1824, -0.2937,  6.3171,  1.3275,-48.4009
1496546327.0925929546,1496546327.0950000286, -1.0864, -0.1824, -0.2937,  6.9275,  0.5951,-51.0101
1496546327.0950739384,1496546327.0974910259, -1.0864, -0.1824, -0.2937,  6.9275,  0.5951,-51.0101
1496546327.0975649357,1496546327.0999779701, -1.0864, -0.1824, -0.2937,  6.9275,  0.5951,-51.0101
1496546327.1000521183,1496546327.1024339199, -1.0864, -0.1824, -0.2937,  6.9275,  0.5951,-51.0101
1496546327.1025071144,1496546327.1047980785, -1.0864, -0.1824, -0.2937,  6.9275, -3.3112,-53.4210
1496546327.1048710346,1496546327.1071610451, -1.0864, -0.1824, -0.2937,  6.9733, -0.7324,-53.4210
1496546327.1072340012,1496546327.1095249653, -1.0942, -0.1941, -0.3079,  6.9733, -0.7324,-53.4210
1496546327.1095991135,1496546327.1119730473, -1.0942, -0.1941, -0.3079,  6.9733, -0.7324,-53.4210
1496546327.1120469570,1496546327.1144609451, -1.0942, -0.1941, -0.3079,  6.9733, -0.7324,-53.4210
1496546327.1145350933,1496546327.1169559956, -1.0942, -0.1941, -0.3079,  7.4310, -0.5188,-56.3660
1496546327.1170299053,1496546327.1194379330, -1.0942, -0.1941, -0.3079,  7.4310, -0.5188,-56.3660
1496546327.1195120811,1496546327.1219348907, -1.0942, -0.1941, -0.3079,  7.4310, -0.5188,-56.3660
1496546327.1220080853,1496546327.1244199276, -1.0942, -0.1941, -0.3079,  7.4310, -0.5188,-56.3660
1496546327.1244940758,1496546327.1269021034, -1.0942, -0.1941, -0.3079,  7.6141, -1.3733,-59.6466
1496546327.1269750595,1496546327.1293869019, -1.1401, -0.2148, -0.2751,  7.6141, -1.3733,-59.6466
1496546327.1295950413,1496546327.1320130825, -1.1401, -0.2148, -0.2751,  7.6141, -1.3733,-59.6466
1496546327.1320860386,1496546327.1344931126, -1.1401, -0.2148, -0.2751,  7.6141, -1.3733,-59.6466
1496546327.1345660686,1496546327.1369779110, -1.1401, -0.2148, -0.2751,  7.6141, -2.1820,-63.2477
1496546327.1370511055,1496546327.1394569874, -1.1401, -0.2148, -0.2751,  7.3395, -2.1820,-63.2477
1496546327.1395299435,1496546327.1419470310, -1.1401, -0.2148, -0.2751,  7.3395, -2.1820,-63.2477
1496546327.1420199871,1496546327.1444311142, -1.1401, -0.2148, -0.2751,  7.3395, -2.1820,-63.2477
1496546327.1445031166,1496546327.1469149590, -1.1401, -0.2148, -0.2751,  7.3395, -2.1820,-66.2537
1496546327.1469869614,1496546327.1494040489, -1.1628, -0.2473, -0.3276,  9.0027, -3.2806,-66.2537
1496546327.1494770050,1496546327.1518359184, -1.1628, -0.2473, -0.3276,  9.0027, -3.2806,-66.2537
1496546327.1519100666,1496546327.1541929245, -1.1628, -0.2473, -0.3276,  9.0027, -3.2806,-66.2537
1496546327.1542670727,1496546327.1565549374, -1.1628, -0.2473, -0.3276,  9.0027, -3.2806,-66.2537
1496546327.1566278934,1496546327.1589128971, -1.1628, -0.2473, -0.3276, 12.9089, -2.7466,-68.2831
1496546327.1589889526,1496546327.1613619328, -1.1628, -0.2473, -0.3276, 12.9089, -2.7466,-68.2831
1496546327.1614389420,1496546327.1638491154, -1.1628, -0.2473, -0.3276, 12.9089, -2.7466,-68.2831
1496546327.1639258862,1496546327.1663370132, -1.1628, -0.2473, -0.3276, 12.9089, -2.7466,-68.2831
1496546327.1664130688,1496546327.1688270569, -1.1628, -0.3098, -0.2615, 18.1427, -1.2360,-68.6493
1496546327.1689040661,1496546327.1713299751, -1.1804, -0.3003, -0.2615, 18.1427, -1.2360,-68.6493
1496546327.1714069843,1496546327.1738219261, -1.1804, -0.3003, -0.2615, 18.1427, -1.2360,-68.6493
1496546327.1738989353,1496546327.1763150692, -1.1804, -0.3003, -0.2615, 18.1427, -1.2360,-68.6493
1496546327.1763908863,1496546327.1788010597, -1.1804, -0.3003, -0.2615, 18.1427, -1.2360,-68.7561
1496546327.1788780689,1496546327.1812980175, -1.1804, -0.3003, -0.2615, 23.6816, -0.6104,-68.7561
1496546327.1813740730,1496546327.1838810444, -1.1804, -0.3003, -0.2615, 23.6816, -0.6104,-68.7561
1496546327.1839590073,1496546327.1862928867, -1.1804, -0.3003, -0.2615, 23.6816, -0.6104,-68.7561
1496546327.1863720417,1496546327.1886639595, -1.1804, -0.3003, -0.2959, 23.6816, -0.6104,-68.7561
1496546327.1887409687,1496546327.1912410259, -1.2117, -0.2981, -0.2959, 28.7018,  0.5798,-70.0378
1496546327.1913180351,1496546327.1936891079, -1.2117, -0.2981, -0.2959, 28.7018,  0.5798,-70.0378
1496546327.1937649250,1496546327.1962230206, -1.2117, -0.2981, -0.2959, 28.7018,  0.5798,-70.0378
1496546327.1963009834,1496546327.1986539364, -1.2117, -0.2981, -0.2959, 28.7018,  0.5798,-70.0378
1496546327.1987309456,1496546327.2012228966, -1.2117, -0.2981, -0.2959, 34.4543,  1.9989,-72.2504
1496546327.2013020515,1496546327.2035939693, -1.2117, -0.2981, -0.2959, 34.4543,  1.9989,-72.2504
1496546327.2036700249,1496546327.2060520649, -1.2117, -0.2981, -0.2959, 34.4543,  1.9989,-72.2504
1496546327.2061290741,1496546327.2084209919, -1.2117, -0.2981, -0.3584, 34.4543,  1.9989,-72.2504
1496546327.2084970474,1496546327.2107911110, -1.2717, -0.3115, -0.3167, 42.2668,  3.9062,-75.3174
1496546327.2108678818,1496546327.2132380009, -1.2717, -0.3115, -0.3167, 41.4581,  3.9062,-75.3174
1496546327.2133150101,1496546327.2157471180, -1.2717, -0.3115, -0.3167, 41.4581,  3.9062,-75.3174
1496546327.2158238888,1496546327.2182359695, -1.2717, -0.3115, -0.3167, 41.4581,  3.9062,-75.3174
1496546327.2183120251,1496546327.2207410336, -1.2717, -0.3115, -0.3167, 41.4581,  3.9062,-75.3174
1496546327.2208180428,1496546327.2232260704, -1.2717, -0.3115, -0.3167, 48.2635,  3.7994,-77.8198
1496546327.2233018875,1496546327.2257099152, -1.2717, -0.3115, -0.3167, 48.2635,  3.7994,-77.8198
1496546327.2257859707,1496546327.2281959057, -1.2717, -0.3115, -0.3167, 48.2635,  3.7994,-77.8198
1496546327.2282719612,1496546327.2307078838, -1.5222, -0.2520, -0.3784, 48.2635,  3.7994,-77.8198
1496546327.2309169769,1496546327.2332050800, -1.5222, -0.2520, -0.3784, 53.5583,  2.1820,-82.0465
1496546327.2332808971,1496546327.2355699539, -1.5222, -0.2520, -0.3784, 53.5583,  2.1820,-82.0465
1496546327.2356460094,1496546327.2379329205, -1.5222, -0.2520, -0.3784, 53.5583,  2.1820,-82.0465
1496546327.2380099297,1496546327.2402970791, -1.5222, -0.2520, -0.3784, 53.5583,  2.1820,-82.0465
1496546327.2403728962,1496546327.2426629066, -1.5222, -0.2520, -0.3784, 57.4646,  3.4790,-88.9435
1496546327.2427389622,1496546327.2450220585, -1.5222, -0.2520, -0.3784, 54.7943,  3.4790,-88.9435
1496546327.2450981140,1496546327.2473850250, -1.5222, -0.2520, -0.3784, 54.7943,  3.4790,-88.9435
1496546327.2474610806,1496546327.2497460842, -1.5000, -0.2852, -0.1880, 54.7943,  3.4790,-88.9435
1496546327.2498209476,1496546327.2522189617, -1.5000, -0.2852, -0.1880, 54.7943,  3.4790,-88.9435
1496546327.2522950172,1496546327.2545869350, -1.5000, -0.2852, -0.1880, 55.6641,  5.9052,-94.5587
1496546327.2546639442,1496546327.2569510937, -1.5000, -0.2852, -0.1880, 55.6641,  5.9052,-94.5587
1496546327.2570281029,1496546327.2593159676, -1.5000, -0.2852, -0.1880, 55.6641,  5.9052,-94.5587
1496546327.2593920231,1496546327.2618429661, -1.5000, -0.2852, -0.1880, 55.6641,  5.9052,-94.5587
1496546327.2619209290,1496546327.2643289566, -1.5000, -0.2852, -0.1880, 56.5643,  5.6915,-98.9075
1496546327.2644069195,1496546327.2668199539, -1.5000, -0.2852, -0.1880, 56.5643,  5.6915,-98.9075
1496546327.2668960094,1496546327.2693040371, -1.5000, -0.2585, -0.0696, 56.5643,  5.6915,-98.9075
1496546327.2693820000,1496546327.2718009949, -1.6653, -0.2585, -0.0696, 56.5643,  5.6915,-98.9075
1496546327.2718770504,1496546327.2742919922, -1.6653, -0.2585, -0.0696, 52.6581,  3.0670,-104.8126
1496546327.2743699551,1496546327.2767760754, -1.6653, -0.2585, -0.0696, 54.4434,  3.0670,-104.8126
1496546327.2768540382,1496546327.2792689800, -1.6653, -0.2585, -0.0696, 54.4434,  3.0670,-104.8126
1496546327.2793459892,1496546327.2817659378, -1.6653, -0.2585, -0.0696, 54.4434,  3.0670,-104.8126
1496546327.2818429470,1496546327.2842500210, -1.6653, -0.2585, -0.0696, 54.4434,  3.0670,-112.3199
1496546327.2843279839,1496546327.2867400646, -1.6653, -0.2585, -0.0696, 53.4515, -0.0153,-112.3199
1496546327.2868170738,1496546327.2892239094, -1.6653, -0.1030, -0.0811, 53.4515, -0.0153,-112.3199
1496546327.2893021107,1496546327.2916738987, -1.9312, -0.1030, -0.0811, 53.4515, -0.0153,-112.3199
1496546327.2917530537,1496546327.2940421104, -1.9312, -0.1030, -0.0811, 53.4515, -0.0153,-112.3199
1496546327.2941200733,1496546327.2964019775, -1.9312, -0.1030, -0.0811, 54.4281, -3.1738,-120.6665
1496546327.2964789867,1496546327.2987689972, -1.9312, -0.1030, -0.0811, 54.4281, -3.1738,-120.6665
1496546327.2988450527,1496546327.3012609482, -1.9312, -0.1030, -0.0811, 54.4281, -3.1738,-120.6665
1496546327.3013389111,1496546327.3036279678, -1.9312, -0.1030, -0.0811, 54.4281, -3.1738,-120.6665
1496546327.3037049770,1496546327.3059940338, -1.9312, -0.1030, -0.0811, 54.4281, -6.1188,-129.1962
1496546327.3060710430,1496546327.3083519936, -1.9312, -0.1030, -0.0811, 53.2532, -6.1188,-129.1962
1496546327.3084280491,1496546327.3107941151, -2.3721,  0.2532, -0.1252, 53.2532, -6.1188,-129.1962
1496546327.3108708858,1496546327.3132491112, -2.3721,  0.2532, -0.1252, 53.2532, -6.1188,-129.1962
1496546327.3133258820,1496546327.3156929016, -2.3721,  0.2532, -0.1252, 53.2532, -6.1188,-140.9149
1496546327.3157699108,1496546327.3181920052, -2.3721,  0.2532, -0.1252, 49.6368, -6.6681,-142.1509
1496546327.3182699680,1496546327.3206460476, -2.3721,  0.2532, -0.1252, 49.6368, -6.6681,-142.1509
1496546327.3207728863,1496546327.3231830597, -2.3721,  0.2532, -0.1252, 49.6368, -6.6681,-142.1509
1496546327.3232600689,1496546327.3256680965, -2.3721,  0.2532, -0.1252, 49.6368, -6.6681,-142.1509
1496546327.3257451057,1496546327.3281519413, -2.3721,  0.2532, -0.1252, 38.9709, -3.4943,-156.6467
1496546327.3282289505,1496546327.3306350708, -2.3281,  0.4851, -0.3284, 38.9709, -3.4943,-156.6467
1496546327.3307619095,1496546327.3331689835, -2.3281,  0.4851, -0.3284, 38.9709, -3.4943,-156.6467
1496546327.3333599567,1496546327.3357660770, -2.3281,  0.4851, -0.3284, 38.9709, -3.4943,-156.6467
1496546327.3358430862,1496546327.3382449150, -2.3281,  0.4851, -0.3284,  9.3231,  4.7455,-155.9753
1496546327.3383190632,1496546327.3407320976, -2.3281,  0.4851, -0.3284,  9.3231,  4.7455,-155.9753
1496546327.3408060074,1496546327.3432090282, -2.3281,  0.4851, -0.3284,  9.3231,  4.7455,-155.9753
1496546327.3432829380,1496546327.3456869125, -2.3281,  0.4851, -0.3284,  9.3231,  4.7455,-155.9753
1496546327.3457610607,1496546327.3481669426, -2.3281,  0.4851, -0.3284,  9.3231, 17.5171,-140.1367
1496546327.3482439518,1496546327.3506939411, -1.0403,  0.2219, -0.2349, -7.3395, 17.5171,-140.1367
1496546327.3507709503,1496546327.3530600071, -1.0403,  0.2219, -0.2349, -7.3395, 17.5171,-140.1367
1496546327.3531360626,1496546327.3554220200, -1.0403,  0.2219, -0.2349, -7.3395, 17.5171,-140.1367
1496546327.3554980755,1496546327.3577799797, -1.0403,  0.2219, -0.2349, -7.3395, 17.5171,-140.1367
1496546327.3578550816,1496546327.3601410389, -1.0403,  0.2219, -0.2349,-16.0828, 27.3743,-127.9602
1496546327.3602199554,1496546327.3626499176, -1.0403,  0.2219, -0.2349,-16.0828, 27.3743,-127.9602
1496546327.3627290726,1496546327.3650200367, -1.0403,  0.2219, -0.2349,-16.0828, 27.3743,-127.9602
1496546327.3650989532,1496546327.3673820496, -1.0403,  0.2219, -0.2349,-16.0828, 27.3743,-127.9602
1496546327.3674590588,1496546327.3697431087, -0.2026, -0.7871, -0.4492,-17.5934, 30.6702,-131.6376
1496546327.3698220253,1496546327.3722751141, -0.2026, -0.7871, -0.4492,-17.5934, 30.6702,-131.6376
1496546327.3723540306,1496546327.3747670650, -0.2026, -0.7871, -0.4492,-17.5934, 30.6702,-131.6376
1496546327.3748459816,1496546327.3772580624, -0.2026, -0.7871, -0.4492,-17.5934, 30.6702,-131.6376
1496546327.3773360252,1496546327.3797500134, -0.2026, -0.7871, -0.4492,-17.5934, 38.4827,-134.5215
1496546327.3798289299,1496546327.3822820187, -0.2026, -0.7871, -0.4492,-28.7170, 38.8641,-134.5215
1496546327.3823609352,1496546327.3847689629, -0.2026, -0.7871, -0.4492,-28.7170, 38.8641,-134.5215
1496546327.3848469257,1496546327.3872559071, -0.2026, -0.7871, -0.4492,-28.7170, 38.8641,-134.5215
1496546327.3873350620,1496546327.3897418976, -0.7651, -1.2786, -0.8540,-28.7170, 38.8641,-122.8027
1496546327.3898210526,1496546327.3922359943, -0.7646, -1.2786, -0.8540,-24.9481, 22.0947,-123.6725
1496546327.3923149109,1496546327.3947210312, -0.7646, -1.2786, -0.8540,-24.9481, 22.0947,-123.6725
1496546327.3947999477,1496546327.3972110748, -0.7646, -1.2786, -0.8540,-24.9481, 22.0947,-123.6725
1496546327.3972890377,1496546327.3996989727, -0.7646, -1.2786, -0.8540,-24.9481, 22.0947,-123.6725
1496546327.3997769356,1496546327.4021980762, -0.7646, -1.2786, -0.8540,-17.0441,  8.6823,-97.1680
1496546327.4022750854,1496546327.4046840668, -0.7646, -1.2786, -0.8540,-17.0441,  8.6823,-97.1680
1496546327.4047620296,1496546327.4071719646, -0.7646, -1.2786, -0.8540,-17.0441,  8.6823,-97.1680
1496546327.4072480202,1496546327.4096560478, -0.6396, -0.9998, -0.7085,-17.0441,  8.6823,-97.1680
1496546327.4097340107,1496546327.4121549129, -0.6406, -0.9998, -0.7085, 12.3291, 13.5803,-71.2433
1496546327.4122350216,1496546327.4146389961, -0.6406, -0.9998, -0.7085, 12.3291, 13.5803,-71.2433
1496546327.4147179127,1496546327.4171290398, -0.6406, -0.9998, -0.7085, 12.3291, 13.5803,-71.2433
1496546327.4172079563,1496546327.4196169376, -0.6406, -0.9998, -0.7085, 12.3291, 13.5803,-71.2433
1496546327.4196960926,1496546327.4221119881, -0.6406, -0.9998, -0.7085, 12.3291, 19.0735,-52.0782
1496546327.4221909046,1496546327.4245939255, -0.6406, -0.9998, -0.7085, 32.3029, 19.0735,-52.0782
1496546327.4246730804,1496546327.4270830154, -0.6406, -0.9998, -0.7085, 32.3029, 19.0735,-52.0782
1496546327.4271619320,1496546327.4295699596, -0.6406, -0.2766, -0.4043, 32.3029, 19.0735,-52.0782
1496546327.4296491146,1496546327.4321060181, -0.5171, -0.2766, -0.4043, 32.3029, 19.0735,-32.5470
1496546327.4321849346,1496546327.4345951080, -0.5171, -0.2766, -0.4043, 44.7235, 17.2729,-32.4554
1496546327.4347829819,1496546327.4371929169, -0.5171, -0.2766, -0.4043, 44.7235, 17.2729,-32.4554
1496546327.4372711182,1496546327.4396820068, -0.5171, -0.2766, -0.4043, 44.7235, 17.2729,-32.4554
1496546327.4397599697,1496546327.4421789646, -0.5171, -0.2766, -0.4043, 44.7235, 17.2729,-32.4554
1496546327.4422578812,1496546327.4446609020, -0.5171, -0.2766, -0.4043, 47.5616,  6.2256,-11.3678
1496546327.4447369576,1496546327.4471390247, -0.5171, -0.2766, -0.4043, 47.5616,  6.2256,-11.3678
1496546327.4472160339,1496546327.4496200085, -0.5171, -0.2266, -0.2537, 47.5616,  6.2256,-11.3678
1496546327.4496970177,1496546327.4520499706, -0.0898, -0.2266, -0.2537, 47.5616,  6.2256,-11.3678
1496546327.4521269798,1496546327.4544138908, -0.0898, -0.2266, -0.2537, 52.7954,  3.5400, -6.0272
1496546327.4544880390,1496546327.4567749500, -0.0898, -0.2266, -0.2537, 52.7954,  3.5400, -6.0272
1496546327.4568490982,1496546327.4591360092, -0.0898, -0.2266, -0.2537, 52.7954,  3.5400, -6.0272
1496546327.4592099190,1496546327.4615418911, -0.0898, -0.2266, -0.2537, 52.7954,  3.5400, -6.0272
1496546327.4616169930,1496546327.4640319347, -0.0898, -0.2266, -0.2537, 52.7954,  3.5400,  4.2114
1496546327.4641070366,1496546327.4665160179, -0.0898, -0.2266, -0.2537, 58.5480,  2.0905,  4.2114
1496546327.4665908813,1496546327.4690010548, -0.0898, -0.2266, -0.1201, 58.5480,  2.0905,  4.2114
1496546327.4690771103,1496546327.4714989662, -0.2856,  0.2144, -0.1201, 58.5480,  2.0905,  4.2114
1496546327.4715740681,1496546327.4739849567, -0.2856,  0.2144, -0.1201, 58.5480,  2.0905,  4.2114
1496546327.4740591049,1496546327.4764680862, -0.2856,  0.2144, -0.1201, 66.8793,  1.6174, 26.6724
1496546327.4765450954,1496546327.4789519310, -0.2856,  0.2144, -0.1201, 66.8793,  1.6174, 26.6724
1496546327.4790298939,1496546327.4814848900, -0.2856,  0.2144, -0.1201, 66.8793,  1.6174, 26.6724
1496546327.4815630913,1496546327.4839758873, -0.2856,  0.2144, -0.1201, 66.8793,  1.6174, 26.6724
1496546327.4840528965,1496546327.4864621162, -0.2856,  0.2144, -0.1201, 70.1599, -0.5188, 48.4619
1496546327.4865400791,1496546327.4889450073, -0.2856,  0.2144, -0.0576, 70.1599, -0.5188, 48.4619
1496546327.4890239239,1496546327.4914329052, -0.4692,  0.4434, -0.0010, 70.1599, -0.5188, 48.4619
1496546327.4915120602,1496546327.4939229488, -0.4692,  0.4434, -0.0010, 70.1599, -0.5188, 48.4619
1496546327.4940021038,1496546327.4964098930, -0.4692,  0.4434, -0.0010, 54.5349, -3.8452, 64.4073
1496546327.4964890480,1496546327.4989008904, -0.4692,  0.4434, -0.0010, 52.9785, -3.8452, 64.4073
1496546327.4989790916,1496546327.5013730526, -0.4692,  0.4434, -0.0010, 52.9785, -3.8452, 64.4073
1496546327.5014519691,1496546327.5037429333, -0.4692,  0.4434, -0.0010, 52.9785, -3.8452, 64.4073
1496546327.5038208961,1496546327.5062000751, -0.4692,  0.4434, -0.0010, 52.9785, -3.8452, 73.5321
1496546327.5062789917,1496546327.5085659027, -0.4692,  0.4434, -0.0010, 28.9001, -2.6855, 73.5321
1496546327.5086441040,1496546327.5111498833, -0.4463,  0.0581, -0.0579, 28.9001, -2.6855, 73.5321
1496546327.5112280846,1496546327.5135989189, -0.4463,  0.0581, -0.0579, 28.9001, -2.6855, 73.5321
1496546327.5136768818,1496546327.5160510540, -0.4463,  0.0581, -0.0579, 28.9001, -2.6855, 73.5321
1496546327.5161290169,1496546327.5184900761, -0.4463,  0.0581, -0.0579, 13.1836, -3.2806, 81.3141
1496546327.5185689926,1496546327.5211310387, -0.4463,  0.0581, -0.0579, 13.1836, -3.2806, 81.3141
1496546327.5212190151,1496546327.5236821175, -0.4463,  0.0581, -0.0579, 13.1836, -3.2806, 81.3141
1496546327.5237629414,1496546327.5261759758, -0.4463,  0.0581, -0.0579, 13.1836, -3.2806, 81.3141
1496546327.5262539387,1496546327.5286669731, -0.4463,  0.0581, -0.0579,  2.2736, -6.3324, 92.4225
1496546327.5287420750,1496546327.5311648846, -0.4709,  0.0176, -0.0293,  2.2736, -6.3324, 92.4225
1496546327.5312399864,1496546327.5338668823, -0.4709,  0.0176, -0.0293,  2.2736, -6.3324, 92.4225
1496546327.5339429379,1496546327.5363559723, -0.4709,  0.0176, -0.0293,  2.2736, -6.3324, 92.4225
1496546327.5364310741,1496546327.5388369560, -0.4709,  0.0176, -0.0293, -7.8430,-10.7727,106.2469
1496546327.5390279293,1496546327.5414791107, -0.4709,  0.0176, -0.0293, -7.8430,-10.7727,106.2469
1496546327.5415558815,1496546327.5439629555, -0.4709,  0.0176, -0.0293, -7.8430,-10.7727,106.2469
1496546327.5440390110,1496546327.5464489460, -0.4709,  0.0176, -0.0293, -7.8430,-10.7727,106.2469
1496546327.5465259552,1496546327.5489308834, -0.4709,  0.0176, -0.0293, -7.8430,-14.5416,119.5068
1496546327.5490078926,1496546327.5513749123, -0.6477,  0.0881, -0.0300,-18.6005,-14.5416,119.5068
1496546327.5514550209,1496546327.5537350178, -0.6477,  0.0881, -0.0300,-18.6005,-14.5416,119.5068
1496546327.5538139343,1496546327.5560998917, -0.6477,  0.0881, -0.0300,-18.6005,-14.5416,119.5068
1496546327.5561769009,1496546327.5584640503, -0.6477,  0.0881, -0.0300,-18.6005,-14.5416,119.5068
1496546327.5585429668,1496546327.5608420372, -0.6477,  0.0881, -0.0300,-28.0609,-16.2048,134.1400
1496546327.5609209538,1496546327.5633258820, -0.6477,  0.0881, -0.0300,-28.0609,-16.2048,134.1400
1496546327.5634059906,1496546327.5658180714, -0.6477,  0.0881, -0.0300,-28.0609,-16.2048,134.1400
1496546327.5658969879,1496546327.5682990551, -0.6477,  0.0881, -0.0300,-28.0609,-16.2048,134.1400
1496546327.5683779716,1496546327.5707960129, -0.7827,  0.1130, -0.0742,-34.9426,-17.5323,148.7579
1496546327.5708749294,1496546327.5731599331, -0.7827,  0.1130, -0.0742,-34.9426,-17.5323,148.7579
1496546327.5732378960,1496546327.5755269527, -0.7827,  0.1130, -0.0742,-34.9426,-17.5323,148.7579
1496546327.5756049156,1496546327.5778889656, -0.7827,  0.1130, -0.0742,-34.9426,-17.5323,148.7579
1496546327.5779678822,1496546327.5802528858, -0.7827,  0.1130, -0.0742,-34.9426,-17.5323,161.5753
1496546327.5803310871,1496546327.5827639103, -0.7827,  0.1130, -0.0742,-42.4042,-18.9819,161.5753
1496546327.5828430653,1496546327.5851290226, -0.7827,  0.1130, -0.0742,-42.4042,-18.9819,161.5753
1496546327.5852069855,1496546327.5874938965, -0.7827,  0.1130, -0.0742,-42.4042,-18.9819,161.5753
1496546327.5875720978,1496546327.5898480415, -0.9077,  0.0945, -0.0452,-42.4042,-18.9819,161.5753
1496546327.5899269581,1496546327.5924448967, -0.9250,  0.0945, -0.0452,-52.1240,-20.3857,171.9360
1496546327.5925250053,1496546327.5949308872, -0.9250,  0.0945, -0.0452,-52.1240,-20.3857,171.9360
1496546327.5950090885,1496546327.5974159241, -0.9250,  0.0945, -0.0452,-52.1240,-20.3857,171.9360
1496546327.5974960327,1496546327.5999009609, -0.9250,  0.0945, -0.0452,-52.1240,-20.3857,171.9360
1496546327.5999789238,1496546327.6023170948, -0.9250,  0.0945, -0.0452,-62.9883,-21.7285,179.3213
1496546327.6023960114,1496546327.6046719551, -0.9250,  0.0945, -0.0452,-62.9883,-21.7285,179.3213
1496546327.6047499180,1496546327.6071970463, -0.9250,  0.0945, -0.0452,-62.9883,-21.7285,179.3213
1496546327.6072781086,1496546327.6095640659, -0.9250, -0.3430, -0.1196,-62.9883,-21.7285,179.3213
1496546327.6096420288,1496546327.6120779514, -1.1013, -0.3362, -0.1196,-62.9883,-21.7285,179.3518
1496546327.6121571064,1496546327.6145279408, -1.1013, -0.3362, -0.1196,-77.1179,-21.9574,179.3518
1496546327.6146070957,1496546327.6175599098, -1.1013, -0.3362, -0.1196,-77.1179,-21.9574,179.3518
1496546327.6176400185,1496546327.6200540066, -1.1013, -0.3362, -0.1196,-77.1179,-21.9574,179.3518
1496546327.6201319695,1496546327.6225540638, -1.1013, -0.3362, -0.1196,-77.1179,-21.9574,161.9415
1496546327.6226329803,1496546327.6250450611, -1.1013, -0.3362, -0.1196,-86.8378,-19.1956,161.9415
1496546327.6251230240,1496546327.6275339127, -1.1013, -0.3362, -0.1196,-86.8378,-19.1956,161.9415
1496546327.6276130676,1496546327.6300139427, -1.1638, -0.7715, -0.2422,-86.8378,-19.1956,161.9415
1496546327.6300930977,1496546327.6325170994, -1.1780, -0.7715, -0.2422,-86.8378,-19.1956,161.9415
1496546327.6325960159,1496546327.6349968910, -1.1780, -0.7715, -0.2422,-68.5883,-17.5781,157.5012
1496546327.6350750923,1496546327.6374819279, -1.1780, -0.7715, -0.2422,-68.5883,-17.5781,157.5012
1496546327.6375598907,1496546327.6399660110, -1.1780, -0.7715, -0.2422,-68.5883,-17.5781,157.5012
1496546327.6400449276,1496546327.6424920559, -1.1780, -0.7715, -0.2422,-68.5883,-17.5781,157.5012
1496546327.6426820755,1496546327.6450920105, -1.1780, -0.7715, -0.2422,-52.8870,-25.3601,161.7432
1496546327.6451721191,1496546327.6475839615, -1.1780, -0.7715, -0.2422,-52.8870,-25.3601,161.7432
1496546327.6476619244,1496546327.6500649452, -1.2405, -0.9656, -0.0955,-52.8870,-25.3601,161.7432
1496546327.6501441002,1496546327.6524729729, -1.2285, -0.9656, -0.0955,-52.8870,-25.3601,161.7432
1496546327.6525518894,1496546327.6548399925, -1.2285, -0.9656, -0.0955,-37.2620,-32.1503,159.7748
1496546327.6549179554,1496546327.6571969986, -1.2285, -0.9656, -0.0955,-37.6587,-32.1503,159.7748
1496546327.6572749615,1496546327.6595649719, -1.2285, -0.9656, -0.0955,-37.6587,-32.1503,159.7748
1496546327.6596438885,1496546327.6620640755, -1.2285, -0.9656, -0.0955,-37.6587,-32.1503,159.7748
1496546327.6621429920,1496546327.6644248962, -1.2285, -0.9656, -0.0955,-37.6587,-32.1503,159.7748
1496546327.6645030975,1496546327.6667840481, -1.2285, -0.9656, -0.0955,-25.1160,-34.4391,167.4042
1496546327.6668629646,1496546327.6691420078, -1.2285, -0.9656, -0.0330,-25.1160,-34.4391,167.4042
1496546327.6692209244,1496546327.6717178822, -1.3320, -0.4292, -0.0608,-25.1160,-34.4391,167.4042
1496546327.6717989445,1496546327.6740889549, -1.3320, -0.4292, -0.0608,-25.1160,-34.4391,167.4042
1496546327.6741681099,1496546327.6764519215, -1.3320, -0.4292, -0.0608,-22.7661,-34.5917,173.5992
1496546327.6765289307,1496546327.6788139343, -1.3320, -0.4292, -0.0608,-22.7661,-34.5917,173.5992
1496546327.6788909435,1496546327.6813189983, -1.3320, -0.4292, -0.0608,-22.7661,-34.5917,173.5992
1496546327.6813969612,1496546327.6837630272, -1.3320, -0.4292, -0.0608,-22.7661,-34.5917,173.5992
1496546327.6838409901,1496546327.6862061024, -1.3320, -0.4292, -0.0608,-22.7661,-30.6854,176.6815
1496546327.6862840652,1496546327.6893920898, -1.3320, -0.4292, -0.1587,-26.8250,-31.1737,176.6815
1496546327.6894710064,1496546327.6918890476, -1.2834, -0.3064, -0.1587,-26.8250,-31.1737,176.6815
1496546327.6919679642,1496546327.6943728924, -1.2834, -0.3064, -0.1587,-26.8250,-31.1737,176.6815
1496546327.6944520473,1496546327.6968610287, -1.2834, -0.3064, -0.1587,-26.8250,-31.1737,175.3387
1496546327.6969389915,1496546327.6993460655, -1.2834, -0.3064, -0.1587,-31.2042,-28.7170,175.3387
1496546327.6994240284,1496546327.7023379803, -1.2834, -0.3064, -0.1587,-31.2042,-28.7170,175.3387
1496546327.7024168968,1496546327.7047090530, -1.2834, -0.3064, -0.1587,-31.2042,-28.7170,175.3387
1496546327.7047879696,1496546327.7070670128, -1.2834, -0.3064, -0.1587,-31.2042,-28.7170,175.0793
1496546327.7071440220,1496546327.7094221115, -1.2834, -0.3064, -0.2734,-36.0718,-26.6113,175.0793
1496546327.7095000744,1496546327.7119081020, -1.3879, -0.2715, -0.2734,-36.0718,-26.6113,175.0793
1496546327.7119870186,1496546327.7143929005, -1.3879, -0.2715, -0.2734,-36.0718,-26.6113,175.0793
1496546327.7144711018,1496546327.7168829441, -1.3879, -0.2715, -0.2734,-36.0718,-26.6113,175.0793
1496546327.7169609070,1496546327.7193679810, -1.3879, -0.2715, -0.2734,-42.6178,-23.5138,176.3916
1496546327.7194459438,1496546327.7218389511, -1.3879, -0.2715, -0.2734,-42.6178,-23.5138,176.3916
1496546327.7219181061,1496546327.7242081165, -1.3879, -0.2715, -0.2734,-42.6178,-23.5138,176.3916
1496546327.7242848873,1496546327.7265670300, -1.3879, -0.2715, -0.2734,-42.6178,-23.5138,176.3916
1496546327.7266449928,1496546327.7289309502, -1.3879, -0.2715, -0.2734,-50.2930,-21.3928,177.0630
1496546327.7290079594,1496546327.7313430309, -1.6077, -0.2258, -0.3630,-50.2930,-21.3928,177.0630
1496546327.7314219475,1496546327.7338299751, -1.6077, -0.2258, -0.3630,-50.2930,-21.3928,177.0630
1496546327.7339079380,1496546327.7363200188, -1.6077, -0.2258, -0.3630,-50.2930,-21.3928,177.0630
1496546327.7363979816,1496546327.7388010025, -1.6077, -0.2258, -0.3630,-50.2930,-21.3928,175.3845
1496546327.7388770580,1496546327.7412650585, -1.6077, -0.2258, -0.3630,-60.2570,-18.8293,175.3845
1496546327.7413439751,1496546327.7436308861, -1.6077, -0.2258, -0.3630,-60.2570,-18.8293,175.3845
1496546327.7437090874,14