timestamp_before,timestamp_after,accel_x,accel_y,accel_z,gyro_x,gyro_y,gryo_z
1496504820.0227839947,1496504820.0250639915, -0.3904,  0.3516, -0.1997,-37.9791, -9.7504,250.6561
1496504820.0251560211,1496504820.0276060104, -0.5310,  0.2561, -0.2371,-37.9791, -9.7504,250.6561
1496504820.0276849270,1496504820.0299689770, -0.5310,  0.2561, -0.2371,-37.9791, -9.7504,250.6561
1496504820.0300459862,1496504820.0323319435, -0.5310,  0.2561, -0.2371,-37.9791, -9.7504,250.6561
1496504820.0324089527,1496504820.0346961021, -0.5310,  0.2561, -0.2371,-43.4265, -9.5367,274.0631
1496504820.0347731113,1496504820.0370569229, -0.5310,  0.2561, -0.2371,-43.4265, -9.5367,274.0631
1496504820.0371339321,1496504820.0394210815, -0.5310,  0.2561, -0.2371,-43.4265, -9.5367,274.0631
1496504820.0394999981,1496504820.0417830944, -0.5310,  0.2561, -0.2371,-43.4265, -9.5367,274.0631
1496504820.0418601036,1496504820.0441439152, -0.5310,  0.2561, -0.2371,-43.4265, -9.5367,274.0631
1496504820.0442199707,1496504820.0464980602, -0.7461,  0.2356, -0.2402,-43.5333, -9.9487,274.9329
1496504820.0465750694,1496504820.0488660336, -0.7461,  0.2356, -0.2402,-43.5333, -9.9487,274.9329
1496504820.0489430428,1496504820.0513339043, -0.7461,  0.2356, -0.2402,-43.5333, -9.9487,274.9329
1496504820.0514109135,1496504820.0536990166, -0.7461,  0.2356, -0.2402,-43.5333, -9.9487,274.9329
1496504820.0537750721,1496504820.0560979843, -0.7461,  0.2356, -0.2402,-47.4091, -9.9792,286.0260
1496504820.0578238964,1496504820.0601160526, -0.7461,  0.2356, -0.2402,-47.4091, -9.9792,286.0260
1496504820.0601949692,1496504820.0625100136, -0.7461,  0.2356, -0.2402,-47.4091, -9.9792,286.0260
1496504820.0625889301,1496504820.0650789738, -0.7461,  0.2356, -0.2402,-47.4091, -9.9792,286.0260
1496504820.0651578903,1496504820.0675270557, -1.0278,  0.1660, -0.1738,-48.9044,-13.2904,300.6744
1496504820.0676059723,1496504820.0700209141, -1.0278,  0.1660, -0.1738,-48.9044,-13.2904,300.6744
1496504820.0701000690,1496504820.0725100040, -1.0278,  0.1660, -0.1738,-48.9044,-13.2904,300.6744
1496504820.0725870132,1496504820.0749979019, -1.0278,  0.1660, -0.1738,-48.9044,-13.2904,300.6744
1496504820.0750749111,1496504820.0774960518, -1.0278,  0.1660, -0.1738,-45.2423,-18.5089,315.4144
1496504820.0775740147,1496504820.0799798965, -1.0278,  0.1660, -0.1738,-45.2423,-18.5089,315.4144
1496504820.0800580978,1496504820.0824670792, -1.0278,  0.1660, -0.1738,-45.2423,-18.5089,315.4144
1496504820.0825450420,1496504820.0849568844, -1.0278,  0.1660, -0.1738,-45.2423,-18.5089,315.4144
1496504820.0850350857,1496504820.0874569416, -1.3311,  0.1323, -0.0691,-39.1998,-20.1721,330.0018
1496504820.0875380039,1496504820.0899450779, -1.3311,  0.1323, -0.0691,-39.1998,-20.1721,330.0018
1496504820.0900249481,1496504820.0924329758, -1.3311,  0.1323, -0.0691,-39.1998,-20.1721,330.0018
1496504820.0925118923,1496504820.0949239731, -1.3311,  0.1323, -0.0691,-39.1998,-20.1721,330.0018
1496504820.0950028896,1496504820.0974190235, -1.3311,  0.1323, -0.0691,-39.1998,-20.1721,341.4307
1496504820.0974988937,1496504820.0997889042, -1.3311,  0.1323, -0.0691,-33.1421,-20.1111,341.4307
1496504820.0998690128,1496504820.1021521091, -1.3311,  0.1323, -0.0691,-33.1421,-20.1111,341.4307
1496504820.1022310257,1496504820.1045160294, -1.3311,  0.1323, -0.0691,-33.1421,-20.1111,341.4307
1496504820.1045958996,1496504820.1068840027, -1.7175,  0.1765, -0.1672,-33.1421,-20.1111,341.4307
1496504820.1069619656,1496504820.1092510223, -1.7175,  0.1765, -0.1672,-27.9541,-16.6931,351.8524
1496504820.1093280315,1496504820.1116120815, -1.7175,  0.1765, -0.1672,-27.9541,-16.6931,351.8524
1496504820.1116878986,1496504820.1139779091, -1.7175,  0.1765, -0.1672,-27.9541,-16.6931,351.8524
1496504820.1140549183,1496504820.1163389683, -1.7175,  0.1765, -0.1672,-27.9541,-16.6931,351.8524
1496504820.1164150238,1496504820.1188719273, -1.7175,  0.1765, -0.1672,-27.9541,-13.6414,365.7990
1496504820.1189510822,1496504820.1212410927, -1.7175,  0.1765, -0.1672,-28.7933,-13.6414,365.7990
1496504820.1213190556,1496504820.1236059666, -1.7175,  0.1765, -0.1672,-28.7933,-13.6414,365.7990
1496504820.1236839294,1496504820.1259710789, -1.7175,  0.1765, -0.3105,-28.7933,-13.6414,365.7990
1496504820.1261930466,1496504820.1285750866, -2.1631,  0.1345, -0.3105,-28.7933,-13.6414,365.7990
1496504820.1286549568,1496504820.1310660839, -2.1631,  0.1345, -0.3105,-34.7595, -4.5013,379.9591
1496504820.1311419010,1496504820.1335570812, -2.1631,  0.1345, -0.3105,-34.7595, -4.5013,379.9591
1496504820.1336340904,1496504820.1360490322, -2.1631,  0.1345, -0.3105,-34.7595, -4.5013,379.9591
1496504820.1361250877,1496504820.1384780407, -2.1631,  0.1345, -0.3105,-34.7595, -4.5013,379.9591
1496504820.1385550499,1496504820.1408479214, -2.1631,  0.1345, -0.3105,-32.7759, 12.0087,381.4850
1496504820.1409270763,1496504820.1432149410, -2.1631,  0.1345, -0.3105,-32.7759, 12.0087,381.4850
1496504820.1432940960,1496504820.1455800533, -2.1631,  0.1345, -0.1230,-32.7759, 12.0087,381.4850
1496504820.1456589699,1496504820.1480290890, -2.9226, -0.5439, -0.1104,-32.7759, 12.0087,381.4850
1496504820.1481089592,1496504820.1505188942, -2.9226, -0.5439, -0.1104,-32.7759, 14.7400,369.0948
1496504820.1505980492,1496504820.1530120373, -2.9226, -0.5439, -0.1104,-22.0032, 14.7400,369.0948
1496504820.1530909538,1496504820.1555039883, -2.9226, -0.5439, -0.1104,-22.0032, 14.7400,369.0948
1496504820.1555840969,1496504820.1580080986, -2.9226, -0.5439, -0.1104,-22.0032, 14.7400,369.0948
1496504820.1580889225,1496504820.1605000496, -2.9226, -0.5439, -0.1104,-22.0032, 14.7400,349.5636
1496504820.1605799198,1496504820.1629900932, -2.9226, -0.5439, -0.1104,-23.6359, 12.9547,348.8159
1496504820.1630680561,1496504820.1654829979, -2.9226, -0.5439, -0.1104,-23.6359, 12.9547,348.8159
1496504820.1655619144,1496504820.1680428982, -3.4517, -0.8892, -0.6904,-23.6359, 12.9547,348.8159
1496504820.1681220531,1496504820.1705350876, -3.4517, -0.8892, -0.6904,-23.6359, 12.9547,348.8159
1496504820.1706130505,1496504820.1730239391, -3.4517, -0.8892, -0.6904,-24.1089, 12.8021,320.5719
1496504820.1731030941,1496504820.1755099297, -3.4517, -0.8892, -0.6904,-24.1089, 12.8021,320.5719
1496504820.1755900383,1496504820.1780140400, -3.4517, -0.8892, -0.6904,-24.1089, 12.8021,320.5719
1496504820.1780939102,1496504820.1805040836, -3.4517, -0.8892, -0.6904,-24.1089, 12.8021,320.5719
1496504820.1805839539,1496504820.1829929352, -3.4517, -0.8892, -0.6904,-44.0369, 18.6157,288.7115
1496504820.1831600666,1496504820.1857020855, -3.4517, -0.8892, -1.7529,-44.0369, 18.6157,288.7115
1496504820.1857810020,1496504820.1889829636, -2.6516, -1.8682, -1.7512,-44.0369, 18.6157,288.7115
1496504820.1890621185,1496504820.1913468838, -2.6516, -1.8682, -1.7512,-44.0369, 18.6157,288.7115
1496504820.1914219856,1496504820.1937069893, -2.6516, -1.8682, -1.7512,-42.3889, 37.5519,262.6343
1496504820.1937820911,1496504820.1960680485, -2.6516, -1.8682, -1.7512,-42.3889, 37.5519,262.6343
1496504820.1961441040,1496504820.1984980106, -2.6516, -1.8682, -1.7512,-42.3889, 37.5519,262.6343
1496504820.1985731125,1496504820.2009820938, -2.6516, -1.8682, -1.7512,-42.3889, 37.5519,262.6343
1496504820.2010579109,1496504820.2034630775, -2.6516, -1.8682, -1.7512, -3.3264, 15.5334,202.2705
1496504820.2035360336,1496504820.2059459686, -2.6516, -1.8682,  0.7214, -3.7231, 15.5334,202.2705
1496504820.2060210705,1496504820.2084400654, -1.7280, -5.0728,  0.7214, -3.7231, 15.5334,202.2705
1496504820.2085149288,1496504820.2109200954, -1.7280, -5.0728,  0.7214, -3.7231, 15.5334,202.2705
1496504820.2109949589,1496504820.2133979797, -1.7280, -5.0728,  0.7214, -3.7231, 15.5334,121.3074
1496504820.2134718895,1496504820.2158770561, -1.7280, -5.0728,  0.7214, 54.5044, -2.0752,121.3074
1496504820.2159519196,1496504820.2183580399, -1.7280, -5.0728,  0.7214, 54.5044, -2.0752,121.3074
1496504820.2184340954,1496504820.2207179070, -1.7280, -5.0728,  0.7214, 54.5044, -2.0752,121.3074
1496504820.2207939625,1496504820.2230761051, -1.7280, -5.0728,  0.7214, 54.5044, -2.0752,121.3074
1496504820.2231519222,1496504820.2254319191, -1.7280, -5.0728,  0.7214,144.0735, -0.7172, 22.0642
1496504820.2255089283,1496504820.2278358936, -1.1160, -3.1204, -0.7559,144.0735, -0.7172, 22.0642
1496504820.2280290127,1496504820.2303149700, -1.1160, -3.1204, -0.7559,144.0735, -0.7172, 22.0642
1496504820.2303910255,1496504820.2326710224, -1.1160, -3.1204, -0.7559,144.0735, -0.7172, 22.0642
1496504820.2327470779,1496504820.2350249290, -1.1160, -3.1204, -0.7559,144.0735,  8.9569,-94.9554
1496504820.2351009846,1496504820.2375540733, -1.1160, -3.1204, -0.7559,155.7312,  8.9569,-94.9554
1496504820.2376298904,1496504820.2399189472, -1.1160, -3.1204, -0.7559,155.7312,  8.9569,-94.9554
1496504820.2399950027,1496504820.2422790527, -1.1160, -3.1204, -0.7559,155.7312,  8.9569,-94.9554
1496504820.2423551083,1496504820.2446401119, -1.1160, -3.1204, -0.7559,155.7312,  8.9569,-94.9554
1496504820.2447168827,1496504820.2469999790, -2.1777, -0.4202, -1.0352,102.4323, -0.2289,-172.6685
1496504820.2470769882,1496504820.2495589256, -2.1777, -0.4202, -1.0352,102.4323, -0.2289,-172.6685
1496504820.2496349812,1496504820.2520420551, -2.1777, -0.4202, -1.0352,102.4323, -0.2289,-172.6685
1496504820.2521190643,1496504820.2545309067, -2.1777, -0.4202, -1.0352,102.4323, -0.2289,-172.6685
1496504820.2546069622,1496504820.2570130825, -2.1777, -0.4202, -1.0352,  5.7983,-13.9313,-187.9120
1496504820.2570900917,1496504820.2595000267, -2.1777, -0.4202, -1.0352,  5.7983,-13.9313,-187.9120
1496504820.2595748901,1496504820.2619791031, -2.1777, -0.4202, -1.0352,  5.7983,-13.9313,-187.9120
1496504820.2620549202,1496504820.2644560337, -2.1777, -0.4202, -1.0352,  5.7983,-13.9313,-187.9120
1496504820.2645308971,1496504820.2669379711, -1.1777,  3.4373, -0.7651,-60.6079,  3.2959,-119.3237
1496504820.2670130730,1496504820.2694261074, -1.1777,  3.4373, -0.7651,-59.3872,  3.2959,-119.3237
1496504820.2695009708,1496504820.2719049454, -1.1777,  3.4373, -0.7651,-59.3872,  3.2959,-119.3237
1496504820.2719800472,1496504820.2743868828, -1.1777,  3.4373, -0.7651,-59.3872,  3.2959,-119.3237
1496504820.2744610310,1496504820.2768681049, -1.1777,  3.4373, -0.7651,-59.3872,  3.2959,-24.9176
1496504820.2769429684,1496504820.2793660164, -1.1777,  3.4373, -0.7651,-29.4647, 15.6860,-24.9176
1496504820.2794430256,1496504820.2818489075, -1.1777,  3.4373, -0.7651,-29.4647, 15.6860,-24.9176
1496504820.2819259167,1496504820.2843298912, -1.1777,  3.4373, -0.7651,-29.4647, 15.6860,-24.9176
1496504820.2844069004,1496504820.2868080139, -1.1777,  4.1541,  0.9668,-29.4647, 15.6860,-24.9176
1496504820.2868850231,1496504820.2893021107, -0.5659,  4.1541,  0.9668, 29.9835,-17.0746,  7.8583
1496504820.2893788815,1496504820.2917859554, -0.5659,  4.1541,  0.9668, 29.9835,-17.0746,  7.8583
1496504820.2918620110,1496504820.2942669392, -0.5659,  4.1541,  0.9668, 29.9835,-17.0746,  7.8583
1496504820.2943439484,1496504820.2967529297, -0.5659,  4.1541,  0.9668, 29.9835,-17.0746,  7.8583
1496504820.2968289852,1496504820.2992498875, -0.5659,  4.1541,  0.9668,-58.8684, 20.4773,-24.8566
1496504820.2993280888,1496504820.3017349243, -0.5659,  4.1541,  0.9668,-58.8684, 20.4773,-24.8566
1496504820.3018119335,1496504820.3042941093, -0.5659,  4.1541,  0.9668,-58.8684, 20.4773,-24.8566
1496504820.3043730259,1496504820.3067839146, -0.5659, -2.2407,  0.2041,-58.8684, 20.4773,-24.8566
1496504820.3068621159,1496504820.3092830181, -1.8162, -2.2407,  0.2041,-179.9622, 48.6603,-95.4285
1496504820.3093619347,1496504820.3117649555, -1.8162, -2.2407,  0.2041,-180.5267, 48.6603,-95.4285
1496504820.3118429184,1496504820.3142490387, -1.8162, -2.2407,  0.2041,-180.5267, 48.6603,-95.4285
1496504820.3143270016,1496504820.3167350292, -1.8162, -2.2407,  0.2041,-180.5267, 48.6603,-95.4285
1496504820.3168129921,1496504820.3192229271, -1.8162, -2.2407,  0.2041,-180.5267, 48.6603,-165.2069
1496504820.3193020821,1496504820.3217039108, -1.8162, -2.2407,  0.2041,-215.9424, 34.1339,-165.2069
1496504820.3217830658,1496504820.3241879940, -1.8162, -2.2407,  0.2041,-215.9424, 34.1339,-165.2069
1496504820.3242659569,1496504820.3266739845, -1.8162,  0.1753,  0.4055,-215.9424, 34.1339,-165.2069
1496504820.3267519474,1496504820.3292100430, -2.5186,  0.1753,  0.4055,-215.9424, 34.1339,-165.2069
1496504820.3292880058,1496504820.3316938877, -2.5186,  0.1753,  0.4055,-144.7754, 26.3519,-114.1510
1496504820.3318850994,1496504820.3342909813, -2.5186,  0.1753,  0.4055,-144.7754, 26.3519,-114.1510
1496504820.3343698978,1496504820.3367769718, -2.5186,  0.1753,  0.4055,-144.7754, 26.3519,-114.1510
1496504820.3368558884,1496504820.3391799927, -2.5186,  0.1753,  0.4055,-144.7754, 26.3519,-114.1510
1496504820.3392589092,1496504820.3415389061, -2.5186,  0.1753,  0.4055,-80.4443, 33.1421,-95.0012
1496504820.3416171074,1496504820.3439059258, -2.5186,  0.1753,  0.4055,-80.4443, 33.1421,-95.0012
1496504820.3439850807,1496504820.3462619781, -2.5186,  0.1753, -0.0117,-80.4443, 33.1421,-95.0012
1496504820.3463408947,1496504820.3487179279, -1.0750, -0.5425, -0.0117,-80.4443, 33.1421,-95.0012
1496504820.3487989902,1496504820.3510849476, -1.0750, -0.5425, -0.0117,-80.4443, 44.8608,-110.9772
1496504820.3511660099,1496504820.3534469604, -1.0750, -0.5425, -0.0117,-55.7709, 45.0897,-110.9772
1496504820.3535270691,1496504820.3558111191, -1.0750, -0.5425, -0.0117,-55.7709, 45.0897,-110.9772
1496504820.3558900356,1496504820.3583550453, -1.0750, -0.5425, -0.0117,-55.7709, 45.0897,-110.9772
1496504820.3584349155,1496504820.3608429432, -1.0750, -0.5425, -0.0117,-55.7709, 45.0897,-110.9772
1496504820.3609230518,1496504820.3633329868, -1.0750, -0.5425, -0.0117,-48.2178, 53.2074,-100.2197
1496504820.3634130955,1496504820.3658170700, -1.0750, -0.5425, -0.0117,-48.2178, 53.2074,-100.2197
1496504820.3658969402,1496504820.3682799339, -1.5852, -0.1506, -0.6763,-48.2178, 53.2074,-100.2197
1496504820.3683590889,1496504820.3706459999, -1.5852, -0.1506, -0.6763,-48.2178, 53.2074,-100.2197
1496504820.3707249165,1496504820.3730039597, -1.5852, -0.1506, -0.6763,-43.2587, 45.4102,-89.2639
1496504820.3730831146,1496504820.3753690720, -1.5852, -0.1506, -0.6763,-43.2587, 45.4102,-89.2639
1496504820.3754470348,1496504820.3777470589, -1.5852, -0.1506, -0.6763,-43.2587, 45.4102,-89.2639
1496504820.3778259754,1496504820.3802180290, -1.5852, -0.1506, -0.6763,-43.2587, 45.4102,-89.2639
1496504820.3802969456,1496504820.3826940060, -1.5852, -0.1506, -0.6763,-43.2587, 45.4102,-81.8024
1496504820.3827741146,1496504820.3851649761, -1.5852, -0.1506, -0.6763,-31.3263, 26.1383,-81.8024
1496504820.3852438927,1496504820.3876519203, -1.0369,  0.0037, -0.3015,-31.3263, 26.1383,-81.8024
1496504820.3877329826,1496504820.3902230263, -1.0369,  0.0037, -0.3015,-31.3263, 26.1383,-81.8024
1496504820.3903141022,1496504820.3926119804, -1.0369,  0.0037, -0.3015,-31.3263, 26.1383,-81.8024
1496504820.3926920891,1496504820.3949759007, -1.0369,  0.0037, -0.3015,-13.3362, 14.9689,-68.0084
1496504820.3950560093,1496504820.3973369598, -1.0369,  0.0037, -0.3015,-13.3362, 14.9689,-68.0084
1496504820.3976180553,1496504820.3999888897, -1.0369,  0.0037, -0.3015,-13.3362, 14.9689,-68.0084
1496504820.4000699520,1496504820.4024419785, -1.0369,  0.0037, -0.3015,-13.3362, 14.9689,-68.0084
1496504820.4025220871,1496504820.4049730301, -1.0369,  0.0037, -0.3015, -2.2888, 15.8386,-61.7828
1496504820.4050509930,1496504820.4078769684, -0.8823,  0.3608, -0.5481, -2.2888, 15.8386,-61.7828
1496504820.4079549313,1496504820.4103620052, -0.8823,  0.3608, -0.5481, -2.2888, 15.8386,-61.7828
1496504820.4104380608,1496504820.4128429890, -0.8823,  0.3608, -0.5481, -2.2888, 15.8386,-61.7828
1496504820.4129199982,1496504820.4153220654, -0.8823,  0.3608, -0.5481, -5.5695, 13.8550,-61.4777
1496504820.4153978825,1496504820.4178149700, -0.8823,  0.3608, -0.5481, -5.5695, 13.8550,-61.4777
1496504820.4178910255,1496504820.4202969074, -0.8823,  0.3608, -0.5481, -5.5695, 13.8550,-61.4777
1496504820.4203739166,1496504820.4227769375, -0.8823,  0.3608, -0.5481, -5.5695, 13.8550,-61.4777
1496504820.4228529930,1496504820.4252600670, -0.8823,  0.3608, -0.5481, -5.5695,  6.0425,-58.4564
1496504820.4253339767,1496504820.4277470112, -1.1077,  0.2380, -0.5154, -9.5367,  7.7820,-58.4564
1496504820.4278209209,1496504820.4302220345, -1.1077,  0.2380, -0.5154, -9.5367,  7.7820,-58.4564
1496504820.4302959442,1496504820.4326989651, -1.1077,  0.2380, -0.5154, -9.5367,  7.7820,-58.4564
1496504820.4328749180,1496504820.4352788925, -1.1077,  0.2380, -0.5154, -9.5367,  7.7820,-54.5502
1496504820.4353530407,1496504820.4377839565, -1.1077,  0.2380, -0.5154, -6.7291,  2.3651,-53.2837
1496504820.4378559589,1496504820.4401381016, -1.1077,  0.2380, -0.5154, -6.7291,  2.3651,-53.2837
1496504820.4402089119,1496504820.4424910545, -1.1077,  0.2380, -0.5154, -6.7291,  2.3651,-53.2837
1496504820.4425640106,1496504820.4448399544, -1.1077,  0.2380, -0.5154, -6.7291,  2.3651,-53.2837
1496504820.4449119568,1496504820.4471940994, -1.0452,  0.3315, -0.2915, -4.6997,  0.3204,-50.3693
1496504820.4472680092,1496504820.4495530128, -1.0493,  0.3315, -0.2915, -4.6997,  0.3204,-50.3693
1496504820.4496269226,1496504820.4519081116, -1.0493,  0.3315, -0.2915, -4.6997,  0.3204,-50.3693
1496504820.4519810677,1496504820.4542660713, -1.0493,  0.3315, -0.2915, -4.6997,  0.3204,-50.3693
1496504820.4543390274,1496504820.4566190243, -1.0493,  0.3315, -0.2915, -4.6997,  0.3204,-47.4548
1496504820.4566919804,1496504820.4590721130, -1.0493,  0.3315, -0.2915, -7.2937,  2.7313,-47.4548
1496504820.4591450691,1496504820.4614250660, -1.0493,  0.3315, -0.2915, -7.2937,  2.7313,-47.4548
1496504820.4614980221,1496504820.4637789726, -1.0493,  0.3315, -0.2915, -7.2937,  2.7313,-47.4548
1496504820.4638500214,1496504820.4661340714, -1.0493,  0.3315, -0.2915, -7.2937,  2.7313,-47.4548
1496504820.4662048817,1496504820.4685719013, -1.1094,  0.2808, -0.1387, -9.0942,  6.9275,-46.0052
1496504820.4686460495,1496504820.4710528851, -1.1094,  0.2808, -0.1387, -9.0942,  6.9275,-46.0052
1496504820.4711270332,1496504820.4735341072, -1.1094,  0.2808, -0.1387, -9.0942,  6.9275,-46.0052
1496504820.4736080170,1496504820.4760088921, -1.1094,  0.2808, -0.1387, -9.0942,  6.9275,-46.0052
1496504820.4760830402,1496504820.4784529209, -1.1094,  0.2808, -0.1387,-10.4523, 10.6812,-45.4102
1496504820.4785308838,1496504820.4808089733, -1.1094,  0.2808, -0.1387,-10.4523, 10.6812,-45.4102
1496504820.4808869362,1496504820.4831709862, -1.1094,  0.2808, -0.1387,-10.4523, 10.6812,-45.4102
1496504820.4832510948,1496504820.4855349064, -1.1094,  0.2808, -0.1387,-10.4523, 10.6812,-45.4102
1496504820.4856140614,1496504820.4879369736, -1.1631,  0.1289, -0.2310,-10.4523, 10.6812,-45.4102
1496504820.4880170822,1496504820.4904189110, -1.1631,  0.1289, -0.2310,-10.7422, 12.3596,-43.9911
1496504820.4904980659,1496504820.4929070473, -1.1631,  0.1289, -0.2310,-10.7422, 12.3596,-43.9911
1496504820.4929859638,1496504820.4953920841, -1.1631,  0.1289, -0.2310,-10.7422, 12.3596,-43.9911
1496504820.4954710007,1496504820.4978690147, -1.1631,  0.1289, -0.2310,-10.7422, 12.3596,-43.9911
1496504820.4979488850,1496504820.5002310276, -1.1631,  0.1289, -0.2310, -9.0027, 12.1307,-42.0990
1496504820.5003080368,1496504820.5025880337, -1.1631,  0.1289, -0.2310, -9.0027, 12.1307,-42.0990
1496504820.5026650429,1496504820.5049500465, -1.1631,  0.1289, -0.2310, -9.0027, 12.1307,-42.0990
1496504820.5050261021,1496504820.5073070526, -1.2256,  0.1255, -0.1750, -9.0027, 12.1307,-42.0990
1496504820.5074551105,1496504820.5098600388, -1.2175,  0.1255, -0.1750, -9.0027,  9.4757,-42.4805
1496504820.5099349022,1496504820.5123410225, -1.2175,  0.1255, -0.1750, -6.6833,  9.4757,-42.4805
1496504820.5124158859,1496504820.5148260593, -1.2175,  0.1255, -0.1750, -6.6833,  9.4757,-42.4805
1496504820.5148999691,1496504820.5173060894, -1.2175,  0.1255, -0.1750, -6.6833,  9.4757,-42.4805
1496504820.5174319744,1496504820.5198400021, -1.2175,  0.1255, -0.1750, -6.6833,  9.4757,-46.3867
1496504820.5199139118,1496504820.5223159790, -1.2175,  0.1255, -0.1750, -2.8839,  6.6986,-44.3878
1496504820.5223889351,1496504820.5250020027, -1.2175,  0.1255, -0.1750, -2.8839,  6.6986,-44.3878
1496504820.5250749588,1496504820.5274848938, -1.2175,  0.1890, -0.1841, -2.8839,  6.6986,-44.3878
1496504820.5275580883,1496504820.5299909115, -1.2437,  0.1890, -0.1841, -2.8839,  6.6986,-44.3878
1496504820.5300660133,1496504820.5323460102, -1.2437,  0.1890, -0.1841,  1.8158,  5.5847,-47.3328
1496504820.5324199200,1496504820.5346999168, -1.2437,  0.1890, -0.1841,  1.8158,  5.5847,-47.3328
1496504820.5348811150,1496504820.5371661186, -1.2437,  0.1890, -0.1841,  1.8158,  5.5847,-47.3328
1496504820.5372390747,1496504820.5396599770, -1.2437,  0.1890, -0.1841,  1.8158,  5.5847,-47.3328
1496504820.5397329330,1496504820.5421350002, -1.2437,  0.1890, -0.1841,  9.5367,  4.0436,-51.0101
1496504820.5422089100,1496504820.5446150303, -1.2437,  0.1890, -0.1841,  9.5367,  4.0436,-51.0101
1496504820.5446889400,1496504820.5470890999, -1.2437,  0.2515, -0.3303,  9.5367,  4.0436,-51.0101
1496504820.5471630096,1496504820.5496098995, -1.0916,  0.2593, -0.3303,  9.5367,  4.0436,-51.0101
1496504820.5496830940,1496504820.5520839691, -1.0916,  0.2593, -0.3303,  9.5367,  0.1373,-54.9927
1496504820.5521581173,1496504820.5545659065, -1.0916,  0.2593, -0.3303, 17.1204,  2.7771,-54.9927
1496504820.5546429157,1496504820.5570518970, -1.0916,  0.2593, -0.3303, 17.1204,  2.7771,-54.9927
1496504820.5571289062,1496504820.5594239235, -1.0916,  0.2593, -0.3303, 17.1204,  2.7771,-54.9927
1496504820.5595018864,1496504820.5617809296, -1.0916,  0.2593, -0.3303, 17.1204,  2.7771,-54.9927
1496504820.5618560314,1496504820.5641350746, -1.0916,  0.2593, -0.3303, 22.0184,  0.8240,-58.2275
1496504820.5642120838,1496504820.5664899349, -1.0916,  0.2593, -0.3303, 22.0184,  0.8240,-58.2275
1496504820.5665669441,1496504820.5688569546, -1.0430,  0.3469, -0.3665, 22.0184,  0.8240,-58.2275
1496504820.5689339638,1496504820.5712180138, -1.0430,  0.3469, -0.3665, 22.0184,  0.8240,-58.2275
1496504820.5712940693,1496504820.5735778809, -1.0430,  0.3469, -0.3665, 21.7133, -1.5106,-60.3485
1496504820.5736539364,1496504820.5759348869, -1.0430,  0.3469, -0.3665, 21.7133, -1.5106,-60.3485
1496504820.5760109425,1496504820.5783588886, -1.0430,  0.3469, -0.3665, 21.7133, -1.5106,-60.3485
1496504820.5784358978,1496504820.5807158947, -1.0430,  0.3469, -0.3665, 21.7133, -1.5106,-60.3485
1496504820.5807919502,1496504820.5830810070, -1.0430,  0.3469, -0.3665, 21.7133, -1.5106,-60.3485
1496504820.5831580162,1496504820.5854420662, -1.0430,  0.3469, -0.3665, 18.9362, -3.7842,-63.0035
1496504820.5855178833,1496504820.5879631042, -1.0747,  0.3545, -0.4033, 18.9362, -3.7842,-63.0035
1496504820.5880401134,1496504820.5904459953, -1.0747,  0.3545, -0.4033, 18.9362, -3.7842,-63.0035
1496504820.5905230045,1496504820.5929241180, -1.0747,  0.3545, -0.4033, 18.9362, -3.7842,-63.0035
1496504820.5930008888,1496504820.5954010487, -1.0747,  0.3545, -0.4033, 17.0441, -5.5695,-65.9485
1496504820.5954790115,1496504820.5978860855, -1.0747,  0.3545, -0.4033, 17.0441, -5.5695,-65.9485
1496504820.5979630947,1496504820.6003649235, -1.0747,  0.3545, -0.4033, 17.0441, -5.5695,-65.9485
1496504820.6004419327,1496504820.6028459072, -1.0747,  0.3545, -0.4033, 17.0441, -5.5695,-65.9485
1496504820.6029229164,1496504820.6053309441, -1.0747,  0.3545, -0.4033, 13.6566, -7.4005,-68.7714
1496504820.6054069996,1496504820.6078219414, -1.0498,  0.2583, -0.3982, 13.6566, -7.4005,-68.7714
1496504820.6078989506,1496504820.6103029251, -1.0498,  0.2583, -0.3982, 13.6566, -7.4005,-68.7714
1496504820.6103808880,1496504820.6127839088, -1.0498,  0.2583, -0.3982, 13.6566, -7.4005,-68.7714
1496504820.6128609180,1496504820.6152670383, -1.0498,  0.2583, -0.3982, 13.6566, -7.4005,-70.0378
1496504820.6153440475,1496504820.6177549362, -1.0498,  0.2583, -0.3982,  9.6588, -7.5531,-70.0378
1496504820.6178290844,1496504820.6202321053, -1.0498,  0.2583, -0.3982,  9.6588, -7.5531,-70.0378
1496504820.6203069687,1496504820.6227130890, -1.0498,  0.2583, -0.3982,  9.6588, -7.5531,-70.0378
1496504820.6227879524,1496504820.6251931190, -1.0498,  0.2583, -0.3982,  9.6588, -7.5531,-70.0378
1496504820.6252670288,1496504820.6276741028, -1.0498,  0.2307, -0.3401,  5.2948, -8.8654,-70.7855
1496504820.6277489662,1496504820.6300320625, -1.0413,  0.2307, -0.3401,  5.2948, -8.8654,-70.7855
1496504820.6301069260,1496504820.6323859692, -1.0413,  0.2307, -0.3401,  5.2948, -8.8654,-70.7855
1496504820.6324601173,1496504820.6347389221, -1.0413,  0.2307, -0.3401,  5.2948, -8.8654,-70.7855
1496504820.6348109245,1496504820.6370921135, -1.0413,  0.2307, -0.3401,  1.2054, -9.1553,-71.5332
1496504820.6372759342,1496504820.6395590305, -1.0413,  0.2307, -0.3401,  1.2054, -9.1553,-71.5332
1496504820.6396329403,1496504820.6419138908, -1.0413,  0.2307, -0.3401,  1.2054, -9.1553,-71.5332
1496504820.6419880390,1496504820.6444580555, -1.0413,  0.2307, -0.3401,  1.2054, -9.1553,-71.5332
1496504820.6445329189,1496504820.6468238831, -1.0413,  0.2307, -0.2776,  1.2054, -9.1553,-72.0215
1496504820.6468989849,1496504820.6494500637, -1.0881,  0.1396, -0.2720, -1.0223,-10.5743,-72.0215
1496504820.6495289803,1496504820.6519351006, -1.0881,  0.1396, -0.2720, -1.0223,-10.5743,-72.0215
1496504820.6520109177,1496504820.6544179916, -1.0881,  0.1396, -0.2720, -1.0223,-10.5743,-72.0215
1496504820.6544930935,1496504820.6568949223, -1.0881,  0.1396, -0.2720, -1.0223,-10.5743,-72.0215
1496504820.6569719315,1496504820.6594219208, -1.0881,  0.1396, -0.2720, -3.0823,-10.8032,-72.9675
1496504820.6594979763,1496504820.6619009972, -1.0881,  0.1396, -0.2720, -3.0823,-10.8032,-72.9675
1496504820.6619780064,1496504820.6643838882, -1.0881,  0.1396, -0.2720, -3.0823,-10.8032,-72.9675
1496504820.6644599438,1496504820.6668651104, -1.0881,  0.1396, -0.2095, -3.0823,-10.8032,-72.9675
1496504820.6669409275,1496504820.6693489552, -1.1646,  0.0771, -0.2068, -3.5095,-12.9089,-74.2645
1496504820.6694259644,1496504820.6718330383, -1.1646,  0.0771, -0.2068, -3.5095,-12.9089,-74.2645
1496504820.6719100475,1496504820.6743149757, -1.1646,  0.0771, -0.2068, -3.5095,-12.9089,-74.2645
1496504820.6743919849,1496504820.6767940521, -1.1646,  0.0771, -0.2068, -3.5095,-12.9089,-74.2645
1496504820.6768701077,1496504820.6791980267, -1.1646,  0.0771, -0.2068, -3.5095,-12.3901,-75.6989
1496504820.6792769432,1496504820.6815578938, -1.1646,  0.0771, -0.2068, -3.2959,-12.3901,-75.6989
1496504820.6816339493,1496504820.6839129925, -1.1646,  0.0771, -0.2068, -3.2959,-12.3901,-75.6989
1496504820.6839890480,1496504820.6862769127, -1.1646,  0.0771, -0.2068, -3.2959,-12.3901,-75.6989
1496504820.6863529682,1496504820.6886439323, -1.1172,  0.0068, -0.1655, -3.2959,-12.3901,-75.6989
1496504820.6887209415,1496504820.6910030842, -1.1172,  0.0068, -0.1655, -5.1575, -9.7504,-75.5157
1496504820.6910789013,1496504820.6933588982, -1.1172,  0.0068, -0.1655, -5.1575, -9.7504,-75.5157
1496504820.6934349537,1496504820.6957180500, -1.1172,  0.0068, -0.1655, -5.1575, -9.7504,-75.5157
1496504820.6957929134,1496504820.6981680393, -1.1172,  0.0068, -0.1655, -5.1575, -9.7504,-75.5157
1496504820.6982429028,1496504820.7005290985, -1.1172,  0.0068, -0.1655, -6.2256, -8.5449,-74.8749
1496504820.7006039619,1496504820.7028849125, -1.1172,  0.0068, -0.1655, -6.2256, -8.5449,-74.8749
1496504820.7029590607,1496504820.7052419186, -1.1172,  0.0068, -0.1655, -6.2256, -8.5449,-74.8749
1496504820.7053179741,1496504820.7077538967, -1.1172, -0.1018, -0.1924, -6.2256, -8.5449,-74.8749
1496504820.7078280449,1496504820.7102320194, -1.1362, -0.1018, -0.1924, -6.2256, -8.5449,-73.8831
1496504820.7103059292,1496504820.7127099037, -1.1362, -0.1018, -0.1924, -4.2725, -6.9275,-73.8831
1496504820.7127850056,1496504820.7151889801, -1.1362, -0.1018, -0.1924, -4.2725, -6.9275,-73.8831
1496504820.7152619362,1496504820.7176771164, -1.1362, -0.1018, -0.1924, -4.2725, -6.9275,-73.8831
1496504820.7177500725,1496504820.7201530933, -1.1362, -0.1018, -0.1924, -4.2725, -6.9275,-73.8831
1496504820.7202260494,1496504820.7226309776, -1.1362, -0.1018, -0.1924, -0.6256, -6.7444,-72.4792
1496504820.7227048874,1496504820.7251150608, -1.1362, -0.1018, -0.1924, -0.6256, -6.7444,-72.4792
1496504820.7251889706,1496504820.7276079655, -1.1362, -0.1018, -0.2175, -0.6256, -6.7444,-72.4792
1496504820.7276830673,1496504820.7300860882, -1.1494, -0.1045, -0.2175, -0.6256, -6.7444,-72.4792
1496504820.7301599979,1496504820.7325689793, -1.1494, -0.1045, -0.2175,  3.1738, -6.9580,-70.4651
1496504820.7326440811,1496504820.7350471020, -1.1494, -0.1045, -0.2175,  3.1738, -6.9580,-70.4651
1496504820.7351210117,1496504820.7375268936, -1.1494, -0.1045, -0.2175,  3.1738, -6.9580,-70.4651
1496504820.7376010418,1496504820.7398838997, -1.1494, -0.1045, -0.2175,  3.1738, -6.9580,-70.4651
1496504820.7400670052,1496504820.7423501015, -1.1494, -0.1045, -0.2175,  3.1738, -6.9580,-68.7866
1496504820.7424230576,1496504820.7447049618, -1.1494, -0.1045, -0.2175,  6.8207, -7.5836,-68.7866
1496504820.7447791100,1496504820.7470591068, -1.1494, -0.1045, -0.1550,  6.8207, -7.5836,-68.7866
1496504820.7471330166,1496504820.7495319843, -1.1555, -0.0911, -0.1804,  6.8207, -7.5836,-68.7866
1496504820.7496058941,1496504820.7520089149, -1.1555, -0.0911, -0.1804,  6.8207, -7.5836,-68.7866
1496504820.7520830631,1496504820.7544879913, -1.1555, -0.0911, -0.1804, 10.5896, -7.0648,-68.1000
1496504820.7545640469,1496504820.7569708824, -1.1555, -0.0911, -0.1804, 10.5896, -7.0648,-68.1000
1496504820.7570478916,1496504820.7594680786, -1.1555, -0.0911, -0.1804, 10.5896, -7.0648,-68.1000
1496504820.7595450878,1496504820.7619469166, -1.1555, -0.0911, -0.1804, 10.5896, -7.0648,-68.1000
1496504820.7620239258,1496504820.7645969391, -1.1555, -0.0911, -0.1804, 13.4430, -6.7749,-67.6727
1496504820.7646760941,1496504820.7670640945, -1.1555, -0.0911, -0.2429, 13.4430, -6.7749,-67.6727
1496504820.7671420574,1496504820.7698409557, -1.1565, -0.0273, -0.2231, 13.4430, -6.7749,-67.6727
1496504820.7699189186,1496504820.7723250389, -1.1565, -0.0273, -0.2231, 13.4430, -6.7749,-67.6727
1496504820.7724020481,1496504820.7748129368, -1.1565, -0.0273, -0.2231, 15.6708, -6.3324,-68.1763
1496504820.7748899460,1496504820.7772998810, -1.1565, -0.0273, -0.2231, 15.6708, -6.3324,-68.1763
1496504820.7774429321,1496504820.7798480988, -1.1565, -0.0273, -0.2231, 15.6708, -6.3324,-68.1763
1496504820.7799260616,1496504820.7823350430, -1.1565, -0.0273, -0.2231, 15.6708, -6.3324,-68.1763
1496504820.7824110985,1496504820.7848179340, -1.1565, -0.0273, -0.2231, 15.6708, -6.2714,-70.0684
1496504820.7848949432,1496504820.7872970104, -1.1565, -0.0273, -0.2163, 16.9220, -6.2714,-70.0684
1496504820.7874259949,1496504820.7897100449, -1.1870, -0.0186, -0.2163, 16.9220, -6.2714,-70.0684
1496504820.7897880077,1496504820.7920680046, -1.1870, -0.0186, -0.2163, 16.9220, -6.2714,-70.0684
1496504820.7921450138,1496504820.7944359779, -1.1870, -0.0186, -0.2163, 16.9220, -6.2714,-70.0684
1496504820.7945129871,1496504820.7967989445, -1.1870, -0.0186, -0.2163, 15.5792, -7.4615,-73.8678
1496504820.7968759537,1496504820.7991681099, -1.1870, -0.0186, -0.2163, 15.5792, -7.4615,-73.8678
1496504820.7992439270,1496504820.8015260696, -1.1870, -0.0186, -0.2163, 15.5792, -7.4615,-73.8678
1496504820.8016030788,1496504820.8038868904, -1.1870, -0.0186, -0.2163, 15.5792, -7.4615,-73.8678
1496504820.8039638996,1496504820.8062469959, -1.1870, -0.0186, -0.2163, 13.3362, -8.6365,-77.2552
1496504820.8063240051,1496504820.8086230755, -1.2302, -0.0344, -0.2385, 13.3362, -8.6365,-77.2552
1496504820.8086988926,1496504820.8109819889, -1.2302, -0.0344, -0.2385, 13.3362, -8.6365,-77.2552
1496504820.8110589981,1496504820.8133399487, -1.2302, -0.0344, -0.2385, 13.3362, -8.6365,-77.2552
1496504820.8134179115,1496504820.8157041073, -1.2302, -0.0344, -0.2385, 13.3362, -8.6365,-81.1615
1496504820.8157799244,1496504820.8181939125, -1.2302, -0.0344, -0.2385, 10.7880,-10.4675,-80.5359
1496504820.8182730675,1496504820.8205609322, -1.2302, -0.0344, -0.2385, 10.7880,-10.4675,-80.5359
1496504820.8206388950,1496504820.8229238987, -1.2302, -0.0344, -0.2385, 10.7880,-10.4675,-80.5359
1496504820.8230030537,1496504820.8252859116, -1.2302, -0.0344, -0.2385, 10.7880,-10.4675,-80.5359
1496504820.8253641129,1496504820.8277580738, -1.2302, -0.0344, -0.3186, 11.5662,-12.4512,-83.7250
1496504820.8278379440,1496504820.8302450180, -1.2317, -0.0291, -0.3186, 11.5662,-12.4512,-83.7250
1496504820.8303239346,1496504820.8327291012, -1.2317, -0.0291, -0.3186, 11.5662,-12.4512,-83.7250
1496504820.8328080177,1496504820.8352150917, -1.2317, -0.0291, -0.3186, 11.5662,-12.4512,-83.7250
1496504820.8352949619,1496504820.8377060890, -1.2317, -0.0291, -0.3186, 15.4724,-16.1438,-86.3953
1496504820.8377850056,1496504820.8400681019, -1.2317, -0.0291, -0.3186, 14.5874,-16.1438,-86.3953
1496504820.8401479721,1496504820.8424270153, -1.2317, -0.0291, -0.3186, 14.5874,-16.1438,-86.3953
1496504820.8426139355,1496504820.8448998928, -1.2317, -0.0291, -0.3186, 14.5874,-16.1438,-86.3953
1496504820.8449800014,1496504820.8472630978, -1.2317, -0.0291, -0.4436, 14.5874,-16.1438,-86.3953
1496504820.8473420143,1496504820.8497529030, -1.3340, -0.0032, -0.4590, 20.2484,-19.3787,-89.9658
1496504820.8498320580,1496504820.8522388935, -1.3340, -0.0032, -0.4590, 20.2484,-19.3787,-89.9658
1496504820.8523180485,1496504820.8547279835, -1.3340, -0.0032, -0.4590, 20.2484,-19.3787,-89.9658
1496504820.8548080921,1496504820.8572111130, -1.3340, -0.0032, -0.4590, 20.2484,-19.3787,-89.9658
1496504820.8572909832,1496504820.8595929146, -1.3340, -0.0032, -0.4590, 27.5116,-20.3400,-92.3615
1496504820.8596730232,1496504820.8619511127, -1.3340, -0.0032, -0.4590, 27.5116,-20.3400,-92.3615
1496504820.8620309830,1496504820.8643140793, -1.3340, -0.0032, -0.4590, 27.5116,-20.3400,-92.3615
1496504820.8643929958,1496504820.8666789532, -1.3340, -0.0032, -0.4590, 27.5116,-20.3400,-92.3615
1496504820.8667581081,1496504820.8691399097, -1.3872, -0.0771, -0.4639, 27.5116,-20.3400,-95.8099
1496504820.8692190647,1496504820.8716208935, -1.3872, -0.0771, -0.4639, 35.3088,-19.6991,-95.8099
1496504820.8717000484,1496504820.8741080761, -1.3872, -0.0771, -0.4639, 35.3088,-19.6991,-95.8099
1496504820.8741879463,1496504820.8765931129, -1.3872, -0.0771, -0.4639, 35.3088,-19.6991,-95.8099
1496504820.8766720295,1496504820.8790900707, -1.3872, -0.0771, -0.4639, 35.3088,-19.6991,-95.8099
1496504820.8791689873,1496504820.8815751076, -1.3872, -0.0771, -0.4639, 42.5873,-21.0876,-100.3418
1496504820.8816540241,1496504820.8843050003, -1.3872, -0.0771, -0.4639, 42.5873,-21.0876,-100.3418
1496504820.8843860626,1496504820.8867900372, -1.3872, -0.0771, -0.4639, 42.5873,-21.0876,-100.3418
1496504820.8868699074,1496504820.8896028996, -1.4646, -0.0996, -0.3118, 42.5873,-21.0876,-100.3418
1496504820.8896849155,1496504820.8919639587, -1.4646, -0.0996, -0.3118, 48.5535,-20.2789,-105.5756
1496504820.8920431137,1496504820.8943231106, -1.4646, -0.0996, -0.3118, 48.5535,-20.2789,-105.5756
1496504820.8944020271,1496504820.8966801167, -1.4646, -0.0996, -0.3118, 48.5535,-20.2789,-105.5756
1496504820.8967590332,1496504820.8991429806, -1.4646, -0.0996, -0.3118, 48.5535,-20.2789,-105.5756
1496504820.8992218971,1496504820.9016320705, -1.4646, -0.0996, -0.3118, 53.0853,-17.6392,-111.5875
1496504820.9017109871,1496504820.9041171074, -1.4646, -0.0996, -0.3118, 53.0853,-17.6392,-111.5875
1496504820.9041969776,1496504820.9066050053, -1.4646, -0.0996, -0.3118, 53.0853,-17.6392,-111.5875
1496504820.9066839218,1496504820.9091041088, -1.6758, -0.0288, -0.0730, 53.0853,-17.6392,-111.5875
1496504820.9091830254,1496504820.9115910530, -1.6758, -0.0288, -0.0730, 53.0853,-15.5029,-115.8295
1496504820.9116699696,1496504820.9140748978, -1.6758, -0.0288, -0.0730, 57.6172,-15.5029,-115.8295
1496504820.9141540527,1496504820.9165589809, -1.6758, -0.0288, -0.0730, 57.6172,-15.5029,-115.8295
1496504820.9166378975,1496504820.9189760685, -1.6758, -0.0288, -0.0730, 57.6172,-15.5029,-115.8295
1496504820.9190549850,1496504820.9213318825, -1.6758, -0.0288, -0.0730, 57.6172,-15.5029,-115.8295
1496504820.9214100838,1496504820.9236888885, -1.6758, -0.0288, -0.0730, 59.7229,-13.7177,-125.1068
1496504820.9237680435,1496504820.9260458946, -1.6758, -0.0288, -0.0730, 59.7229,-13.7177,-125.1068
1496504820.9261240959,1496504820.9284141064, -1.9883,  0.1287,  0.1125, 59.7229,-13.7177,-125.1068
1496504820.9284920692,1496504820.9307730198, -1.9626,  0.1287,  0.1125, 59.7229,-13.7177,-125.1068
1496504820.9308519363,1496504820.9331390858, -1.9626,  0.1287,  0.1125, 62.4542,-13.6414,-134.7351
1496504820.9332180023,1496504820.9354999065, -1.9626,  0.1287,  0.1125, 62.4542,-13.6414,-134.7351
1496504820.9355790615,1496504820.9378900528, -1.9626,  0.1287,  0.1125, 62.4542,-13.6414,-134.7351
1496504820.9379699230,1496504820.9402539730, -1.9626,  0.1287,  0.1125, 62.4542,-13.6414,-134.7351
1496504820.9403328896,1496504820.9426159859, -1.9626,  0.1287,  0.1125, 62.4542,-13.6414,-150.3601
1496504820.9428069592,1496504820.9450979233, -1.9626,  0.1287,  0.1125, 67.6422,-15.0757,-149.1089
1496504820.9451770782,1496504820.9475479126, -1.9626,  0.1287,  0.1125, 67.6422,-15.0757,-149.1089
1496504820.9476370811,1496504820.9500548840, -2.4785,  0.4944,  0.0781, 67.6422,-15.0757,-149.1089
1496504820.9501359463,1496504820.9525449276, -2.4785,  0.4944,  0.0781, 67.6422,-15.0757,-149.1089
1496504820.9526250362,1496504820.9550309181, -2.4785,  0.4944,  0.0781, 80.0323,-16.4032,-166.4734
1496504820.9551110268,1496504820.9575250149, -2.4785,  0.4944,  0.0781, 80.0323,-16.4032,-166.4734
1496504820.9576039314,1496504820.9600090981, -2.4785,  0.4944,  0.0781, 80.0323,-16.4032,-166.4734
1496504820.9600889683,1496504820.9624919891, -2.4785,  0.4944,  0.0781, 80.0323,-16.4032,-166.4734
1496504820.9625709057,1496504820.9649739265, -2.4785,  0.4944,  0.0781, 85.3424,-13.9160,-184.6313
1496504820.9650530815,1496504820.9674708843, -2.4785,  0.4944,  0.0781, 85.3424,-13.9160,-184.6313
1496504820.9675500393,1496504820.9699590206, -2.5288,  1.1125, -0.0710, 85.3424,-13.9160,-184.6313
1496504820.9700369835,1496504820.9724450111, -2.5288,  1.1125, -0.0710, 85.3424,-13.9160,-184.6313
1496504820.9725239277,1496504820.9749329090, -2.5288,  1.1125, -0.0710, 85.3424,-10.0098,-200.9888
1496504820.9750120640,1496504820.9774301052, -2.5288,  1.1125, -0.0710, 73.0286,-11.0779,-200.9888
1496504820.9775090218,1496504820.9797909260, -2.5288,  1.1125, -0.0710, 73.0286,-11.0779,-200.9888
1496504820.9798688889,1496504820.9821460247, -2.5288,  1.1125, -0.0710, 73.0286,-11.0779,-200.9888
1496504820.9822239876,1496504820.9845080376, -2.5288,  1.1125, -0.0710, 73.0286,-11.0779,-200.9888
1496504820.9845869541,1496504820.9868650436, -2.5288,  1.1125, -0.0710, 55.4047, -7.5226,-203.0640
1496504820.9869420528,1496504820.9893090725, -2.2759,  1.1670, -0.2664, 55.4047, -7.5226,-203.0640
1496504820.9893860817,1496504820.9916648865, -2.2759,  1.1670, -0.2664, 55.4047, -7.5226,-203.0640
1496504820.9917399883,1496504820.9940230846, -2.2759,  1.1670, -0.2664, 55.4047, -7.5226,-203.0640
1496504820.9940979481,1496504820.9963810444, -2.2759,  1.1670, -0.2664, 35.8734,  1.6022,-197.3267
1496504820.9964570999,1496504820.9988760948, -2.2759,  1.1670, -0.2664, 35.8887,  1.6022,-197.3267
1496504820.9989509583,1496504821.0013589859, -2.2759,  1.1670, -0.2664, 35.8887,  1.6022,-197.3267
1496504821.0014359951,1496504821.0040249825, -2.2759,  1.1670, -0.2664, 35.8887,  1.6022,-197.3267
1496504821.0041100979,1496504821.0065209866, -2.2759,  1.1670, -0.2664, 35.8887,  1.6022,-203.5217
1496504821.0065979958,1496504821.0092051029, -1.4934,  0.1003, -0.3196, 20.5841,  3.5553,-203.5217
1496504821.0092849731,1496504821.0116910934, -1.4934,  0.1003, -0.3196, 20.5841,  3.5553,-203.5217
1496504821.0117690563,1496504821.0141708851, -1.4934,  0.1003, -0.3196, 20.5841,  3.5553,-203.5217
1496504821.0142478943,1496504821.0166509151, -1.4934,  0.1003, -0.3196, 20.5841,  3.5553,-207.4280
1496504821.0167291164,1496504821.0191380978, -1.4934,  0.1003, -0.3196, -4.4861,  1.7395,-210.0220
1496504821.0192120075,1496504821.0216140747, -1.4934,  0.1003, -0.3196, -4.4861,  1.7395,-210.0220
1496504821.0216879845,1496504821.0240969658, -1.4934,  0.1003, -0.3196, -4.4861,  1.7395,-210.0220
1496504821.0241720676,1496504821.0265760422, -1.4934,  0.1003, -0.3196, -4.4861,  1.7395,-210.0220
1496504821.0266499519,1496504821.0290660858, -1.2600, -0.3289, -0.6780,-34.4086, 15.6097,-203.5980
1496504821.0291459560,1496504821.0315580368, -1.2600, -0.3289, -0.6780,-34.4086, 15.6097,-203.5980
1496504821.0316369534,1496504821.0340418816, -1.2600, -0.3289, -0.6780,-34.4086, 15.6097,-203.5980
1496504821.0341210365,1496504821.0365281105, -1.2600, -0.3289, -0.6780,-34.4086, 15.6097,-203.5980
1496504821.0366079807,1496504821.0389430523, -1.2600, -0.3289, -0.6780,-47.5464, 20.9961,-182.0831
1496504821.0390219688,1496504821.0413019657, -1.2600, -0.3289, -0.6780,-47.5464, 20.9961,-182.0831
1496504821.0413820744,1496504821.0436639786, -1.2600, -0.3289, -0.6780,-47.5464, 20.9961,-182.0831
1496504821.0437428951,1496504821.0460250378, -1.2600, -0.3289, -0.6780,-47.5464, 20.9961,-182.0831
1496504821.0462100506,1496504821.0485539436, -1.2600, -0.2952, -0.4731,-47.5464, 20.9961,-154.1748
1496504821.0486319065,1496504821.0509190559, -1.2417, -0.2952, -0.4731,-32.1045, 13.3209,-154.1748
1496504821.0509970188,1496504821.0532789230, -1.2417, -0.2952, -0.4731,-32.1045, 13.3209,-154.1748
1496504821.0533580780,1496504821.0556399822, -1.2417, -0.2952, -0.4731,-32.1045, 13.3209,-154.1748
1496504821.0557188988,1496504821.0581378937, -1.2417, -0.2952, -0.4731,-32.1045, 13.3209,-154.1748
1496504821.0582170486,1496504821.0605020523, -1.2417, -0.2952, -0.4731,-10.7117,  7.1716,-127.3193
1496504821.0605781078,1496504821.0628650188, -1.2417, -0.2952, -0.4731,-10.7117,  7.1716,-127.3193
1496504821.0629410744,1496504821.0652239323, -1.2417, -0.2952, -0.4731,-10.7117,  7.1716,-127.3193
1496504821.0652999878,1496504821.0677309036, -1.2417, -0.2952, -0.4731,-10.7117,  7.1716,-127.3193
1496504821.0678069592,1496504821.0702140331, -0.8511, -0.4375, -0.5247,-10.7117,  1.4801,-96.0388
1496504821.0702919960,1496504821.0726931095, -0.8511, -0.4375, -0.5247, 10.4828,  1.4801,-96.0388
1496504821.0727710724,1496504821.0751740932, -0.8511, -0.4375, -0.5247, 10.4828,  1.4801,-96.0388
1496504821.0752520561,1496504821.0776579380, -0.8511, -0.4375, -0.5247, 10.4828,  1.4801,-96.0388
1496504821.0777349472,1496504821.0800139904, -0.8511, -0.4375, -0.5247, 10.4828,  1.4801,-60.8826
1496504821.0800900459,1496504821.0823709965, -0.8511, -0.4375, -0.5247, 22.1252, -3.9520,-60.8673
1496504821.0824470520,1496504821.0847289562, -0.8511, -0.4375, -0.5247, 22.1252, -3.9520,-60.8673
1496504821.0848050117,1496504821.0870869160, -0.8511, -0.4375, -0.5247, 22.1252, -3.9520,-60.8673
1496504821.0871629715,1496504821.0896070004, -0.4585, -0.3403, -0.2712, 22.1252, -3.9520,-60.8673
1496504821.0896840096,1496504821.0920920372, -0.4585, -0.3403, -0.2712, 19.2413,-11.2000,-29.2816
1496504821.0921719074,1496504821.0945789814, -0.4585, -0.3403, -0.2712, 19.2413,-11.2000,-29.2816
1496504821.0946578979,1496504821.0970630646, -0.4585, -0.3403, -0.2712, 19.2413,-11.2000,-29.2816
1496504821.0971419811,1496504821.0995559692, -0.4585, -0.3403, -0.2712, 19.2413,-11.2000,-29.2816
1496504821.0996348858,1496504821.1020441055, -0.4585, -0.3403, -0.2712, 15.3351,-21.6064, -7.5531
1496504821.1021211147,1496504821.1045260429, -0.4585, -0.3403, -0.2712, 12.6953,-21.6064, -7.5531
1496504821.1046030521,1496504821.1070089340, -0.4585, -0.3403, -0.2712, 12.6953,-21.6064, -7.5531
1496504821.1070859432,1496504821.1095080376,  0.0891, -0.2991,  0.0337, 12.6953,-21.6064, -7.5531
1496504821.1095860004,1496504821.1119899750,  0.0891, -0.2991,  0.0337, 12.6953,-21.6064, 18.4479
1496504821.1120700836,1496504821.1144790649,  0.0891, -0.2991,  0.0337, 10.4218,-25.1312, 18.4479
1496504821.1145598888,1496504821.1169619560,  0.0891, -0.2991,  0.0337, 10.4218,-25.1312, 18.4479
1496504821.1170420647,1496504821.1193571091,  0.0891, -0.2991,  0.0337, 10.4218,-25.1312, 18.4479
1496504821.1194379330,1496504821.1217169762,  0.0891, -0.2991,  0.0337, 10.4218,-25.1312, 18.4479
1496504821.1217970848,1496504821.1241030693,  0.0891, -0.2991,  0.0337,  2.0142,-16.6931, 24.2615
1496504821.1241819859,1496504821.1266100407,  0.0891, -0.2991,  0.0337,  2.0142,-16.6931, 24.2615
1496504821.1266889572,1496504821.1293098927, -0.2622, -0.0024, -0.1499,  2.0142,-16.6931, 24.2615
1496504821.1293900013,1496504821.1317980289, -0.2622, -0.0024, -0.1499,  2.0142,-16.6931, 24.2615
1496504821.1318759918,1496504821.1342840195, -0.2622, -0.0024, -0.1499, -3.3875,-13.2141, 47.1497
1496504821.1343629360,1496504821.1367740631, -0.2622, -0.0024, -0.1499, -3.3875,-13.2141, 47.1497
1496504821.1368520260,1496504821.1392700672, -0.2622, -0.0024, -0.1499, -3.3875,-13.2141, 47.1497
1496504821.1393480301,1496504821.1417560577, -0.2622, -0.0024, -0.1499, -3.3875,-13.2141, 47.1497
1496504821.1418330669,1496504821.1442410946, -0.2622, -0.0024, -0.1499, -7.2937,-18.4479, 84.8846
1496504821.1443190575,1496504821.1467289925, -0.2622, -0.0024, -0.1499, -6.9885,-18.4479, 84.8846
1496504821.1469159126,1496504821.1493270397, -0.2581,  0.3284, -0.1399, -6.9885,-18.4479, 84.8846
1496504821.1494040489,1496504821.1518120766, -0.2581,  0.3284, -0.1399, -6.9885,-18.4479, 84.8846
1496504821.1518890858,1496504821.1542999744, -0.2581,  0.3284, -0.1399, -6.9885,-18.4479,114.3494
1496504821.1543760300,1496504821.1567800045, -0.2581,  0.3284, -0.1399,-10.9100,-25.0397,114.3494
1496504821.1568589211,1496504821.1591839790, -0.2581,  0.3284, -0.1399,-10.9100,-25.0397,114.3494
1496504821.1592650414,1496504821.1615440845, -0.2581,  0.3284, -0.1399,-10.9100,-25.0397,114.3494
1496504821.1616230011,1496504821.1639020443, -0.2581,  0.3284, -0.1399,-10.9100,-25.0397,114.3494
1496504821.1639809608,1496504821.1662659645, -0.2581,  0.3284, -0.1399,-12.2528,-28.3356,133.9874
1496504821.1663439274,1496504821.1686339378, -0.2581,  0.2930, -0.1055,-12.2528,-28.3356,133.9874
1496504821.1687130928,1496504821.1709969044, -0.0979,  0.2930, -0.1055,-12.2528,-28.3356,133.9874
1496504821.1710770130,1496504821.1733639240, -0.0979,  0.2930, -0.1055,-12.2528,-28.3356,133.9874
1496504821.1734430790,1496504821.1757249832, -0.0979,  0.2930, -0.1055,-12.2528,-28.3356,146.3623
1496504821.1758029461,1496504821.1782109737, -0.0979,  0.2930, -0.1055,-21.7133,-28.0151,146.3623
1496504821.1782929897,1496504821.1805810928, -0.0979,  0.2930, -0.1055,-21.7133,-28.0151,146.3623
1496504821.1806609631,1496504821.1829450130, -0.0979,  0.2930, -0.1055,-21.7133,-28.0151,146.3623
1496504821.1830248833,1496504821.1853110790, -0.0979,  0.2930, -0.1055,-21.7133,-28.0151,146.3623
1496504821.1853919029,1496504821.1877830029, -0.0979,  0.2930, -0.1055,-33.1726,-26.0925,159.0576
1496504821.1878640652,1496504821.1902740002, -0.2161,  0.3113, -0.0808,-33.1726,-26.0925,159.0576
1496504821.1903541088,1496504821.1927649975, -0.2161,  0.3113, -0.0808,-33.1726,-26.0925,159.0576
1496504821.1928439140,1496504821.1952459812, -0.2161,  0.3113, -0.0808,-33.1726,-26.0925,159.0576
1496504821.1953260899,1496504821.1977360249, -0.2161,  0.3113, -0.0808,-47.8210,-26.4587,173.9807
1496504821.1978158951,1496504821.2002239227, -0.2161,  0.3113, -0.0808,-47.8210,-26.4587,173.9807
1496504821.2003040314,1496504821.2027111053, -0.2161,  0.3113, -0.0808,-47.8210,-26.4587,173.9807
1496504821.2027909756,1496504821.2052009106, -0.2161,  0.3113, -0.0808,-47.8210,-26.4587,173.9807
1496504821.2052810192,1496504821.2077000141, -0.2161,  0.3113, -0.0808,-63.4460,-27.3132,191.6962
1496504821.2077789307,1496504821.2101891041, -0.3550,  0.2471, -0.1440,-63.8885,-27.3132,191.6962
1496504821.2102689743,1496504821.2126729488, -0.3550,  0.2471, -0.1440,-63.8885,-27.3132,191.6962
1496504821.2127509117,1496504821.2151560783, -0.3550,  0.2471, -0.1440,-63.8885,-27.3132,191.6962
1496504821.2152349949,1496504821.2176439762, -0.3550,  0.2471, -0.1440,-63.8885,-27.3132,208.2062
1496504821.2177228928,1496504821.2200028896, -0.3550,  0.2471, -0.1440,-76.2329,-29.2816,208.2062
1496504821.2200829983,1496504821.2223639488, -0.3550,  0.2471, -0.1440,-76.2329,-29.2816,208.2062
1496504821.2224419117,1496504821.2247231007, -0.3550,  0.2471, -0.1440,-76.2329,-29.2816,208.2062
1496504821.2248020172,1496504821.2270779610, -0.3550,  0.2471, -0.1440,-76.2329,-29.2816,208.2062
1496504821.2271571159,1496504821.2295958996, -0.5095,  0.2292, -0.1428,-81.4667,-34.2712,220.9778
1496504821.2296750546,1496504821.2320830822, -0.5095,  0.2292, -0.1428,-81.4667,-34.2712,220.9778
1496504821.2321629524,1496504821.2345700264, -0.5095,  0.2292, -0.1428,-81.4667,-34.2712,220.9778
1496504821.2346489429,1496504821.2370560169, -0.5095,  0.2292, -0.1428,-81.4667,-34.2712,220.9778
1496504821.2371349335,1496504821.2395501137, -0.5095,  0.2292, -0.1428,-81.4667,-41.5344,233.3984
1496504821.2396280766,1496504821.2420310974, -0.5095,  0.2292, -0.1428,-81.6650,-41.5344,233.3984
1496504821.2421090603,1496504821.2446010113, -0.5095,  0.2292, -0.1428,-81.6650,-41.5344,233.3984
1496504821.2446799278,1496504821.2470769882, -0.5095,  0.2292, -0.1428,-81.6650,-41.5344,233.3984
1496504821.2471549511,1496504821.2500009537, -0.7444,  0.3191, -0.1165,-81.6650,-49.9573,246.0785
1496504821.2501919270,1496504821.2525999546, -0.7444,  0.3191, -0.1165,-81.2988,-49.9573,246.0785
1496504821.2526800632,1496504821.2550809383, -0.7444,  0.3191, -0.1165,-81.2988,-49.9573,246.0785
1496504821.2551610470,1496504821.2576100826, -0.7444,  0.3191, -0.1165,-81.2988,-49.9573,246.0785
1496504821.2576899529,1496504821.2601029873, -0.7444,  0.3191, -0.1165,-81.2988,-49.9573,257.6904
1496504821.2601830959,1496504821.2625899315, -0.7444,  0.3191, -0.1165,-86.2579,-54.6417,257.6904
1496504821.2626700401,1496504821.2650790215, -0.7444,  0.3191, -0.1165,-86.2579,-54.6417,257.6904
1496504821.2651588917,1496504821.2676019669, -0.7444,  0.3191, -0.1165,-86.2579,-54.6417,257.6904
1496504821.2676808834,1496504821.2699649334, -1.1326,  0.2764, -0.0054,-86.2579,-54.6417,257.6904
1496504821.2700450420,1496504821.2723250389, -1.1326,  0.2764, -0.0054,-93.7653,-56.5491,266.6016
1496504821.2724049091,1496504821.2746899128, -1.1326,  0.2764, -0.0054,-93.7653,-56.5491,266.6016
1496504821.2747700214,1496504821.2770550251, -1.1326,  0.2764, -0.0054,-93.7653,-56.5491,266.6016
1496504821.2771348953,1496504821.2794260979, -1.1326,  0.2764, -0.0054,-93.7653,-56.5491,266.6016
1496504821.2795059681,1496504821.2817869186, -1.1326,  0.2764, -0.0054,-103.9886,-59.5703,272.2931
1496504821.2818670273,1496504821.2841460705, -1.1326,  0.2764, -0.0054,-103.9886,-59.5703,272.2931
1496504821.2842249870,1496504821.2865059376, -1.1326,  0.2764, -0.0054,-103.9886,-59.5703,272.2931
1496504821.2865860462,1496504821.2888739109, -1.1326, -0.0583, -0.0142,-103.9886,-59.5703,272.2931
1496504821.2889540195,1496504821.2912330627, -1.5764, -0.0583, -0.0142,-103.9886,-59.5703,272.2931
1496504821.2913110256,1496504821.2935960293, -1.5764, -0.0583, -0.0142,-120.9412,-63.7054,275.9857
1496504821.2936739922,1496504821.2959620953, -1.5764, -0.0583, -0.0142,-120.9412,-63.7054,275.9857
1496504821.2960400581,1496504821.2984919548, -1.5764, -0.0583, -0.0142,-120.9412,-63.7054,275.9857
1496504821.2985711098,1496504821.3008549213, -1.5764, -0.0583, -0.0142,-120.9412,-63.7054,275.9857
1496504821.3009340763,1496504821.3032169342, -1.5764, -0.0583, -0.0142,-145.6757,-66.9098,278.3661
1496504821.3032960892,1496504821.3055810928, -1.5764, -0.0583, -0.0142,-145.6757,-66.9098,278.3661
1496504821.3056600094,1496504821.3081319332, -1.5764, -0.0583, -0.0142,-145.6757,-66.9098,278.3661
1496504821.3082120419,1496504821.3106200695, -2.0608, -0.1006, -0.2366,-145.6757,-66.9098,278.3661
1496504821.3107008934,1496504821.3131079674, -2.0608, -0.1006, -0.2366,-145.6757,-66.9098,280.0140
1496504821.3131890297,1496504821.3155939579, -2.0608, -0.1006, -0.2366,-179.1534,-68.8629,280.0140
1496504821.3156731129,1496504821.3180639744, -2.0608, -0.1006, -0.2366,-179.1534,-68.8629,280.0140
1496504821.3181440830,1496504821.3204290867, -2.0608, -0.1006, -0.2366,-179.1534,-68.8629,280.0140
1496504821.3205089569,1496504821.3227899075, -2.0608, -0.1006, -0.2366,-179.1534,-68.8629,280.0140
1496504821.3228690624,1496504821.3251481056, -2.0608, -0.1006, -0.2366,-223.7549,-66.0400,279.2358
1496504821.3252270222,1496504821.3275239468, -2.0608, -0.1006, -0.2366,-223.7549,-66.0400,279.2358
1496504821.3276031017,1496504821.3300080299, -2.4971, -0.1665, -0.9233,-223.7549,-66.0400,279.2358
1496504821.3300869465,1496504821.3324940205, -2.4971, -0.1665, -0.9233,-223.7549,-66.0400,279.2358
1496504821.3325729370,1496504821.3349809647, -2.4971, -0.1665, -0.9233,-279.3427,-55.0537,271.5912
1496504821.3350598812,1496504821.3374838829, -2.4971, -0.1665, -0.9233,-279.3427,-55.0537,271.5912
1496504821.3375630379,1496504821.3399720192, -2.4971, -0.1665, -0.9233,-279.3427,-55.0537,271.5912
1496504821.3400509357,1496504821.3424580097, -2.4971, -0.1665, -0.9233,-279.3427,-55.0537,271.5912
1496504821.3425381184,1496504821.3449430466, -2.4971, -0.1665, -0.9233,-279.3427,-38.1622,252.4109
1496504821.3450219631,1496504821.3474359512, -2.4971, -0.1665, -0.9233,-336.6547,-38.1622,252.4109
1496504821.3475151062,1496504821.3499228954, -2.4814, -0.9753, -1.3018,-336.6547,-38.1622,252.4109
1496504821.3500010967,1496504821.3524079323, -2.4814, -0.9753, -1.3018,-336.6547,-38.1622,252.4109
1496504821.3525929451,1496504821.3550050259, -2.4814, -0.9753, -1.3018,-336.6547,-38.1622,227.4780
1496504821.3550829887,1496504821.3574988842, -2.4814, -0.9753, -1.3018,-361.4502,-37.4298,227.4780
1496504821.3575770855,1496504821.3599820137, -2.4814, -0.9753, -1.3018,-361.4502,-37.4298,227.4780
1496504821.3600609303,1496504821.3624670506, -2.4814, -0.9753, -1.3018,-361.4502,-37.4298,227.4780
1496504821.3625450134,1496504821.3650710583, -2.4814, -0.9753, -1.3018,-361.4502,-37.4298,227.4780
1496504821.3651499748,1496504821.3678541183, -2.4814, -0.9753, -1.3018,-369.7052,-17.8986,199.3408
1496504821.3679330349,1496504821.3702239990, -1.9011, -0.9360, -2.1226,-369.7052,-17.8986,199.3408
1496504821.3703019619,1496504821.3725900650, -1.9011, -0.9360, -2.1226,-369.7052,-17.8986,199.3408
1496504821.3726670742,1496504821.3749499321, -1.9011, -0.9360, -2.1226,-369.7052,-17.8986,199.3408
1496504821.3750278950,1496504821.3773128986, -1.9011, -0.9360, -2.1226,-358.8867, 14.3585,168.1366
1496504821.3774499893,1496504821.3798549175, -1.9011, -0.9360, -2.1226,-358.8867, 14.3585,168.1366
1496504821.3799331188,1496504821.3823399544, -1.9011, -0.9360, -2.1226,-358.8867, 14.3585,168.1366
1496504821.3824191093,1496504821.3848268986, -1.9011, -0.9360, -2.1226,-358.8867, 14.3585,168.1366
1496504821.3849060535,1496504821.3873128891, -1.9011, -0.9360, -2.1226,-358.8867, 38.0859,115.2039
1496504821.3874409199,1496504821.3898479939, -1.9775, -2.5903, -2.3054,-290.7715, 38.0859,115.2039
1496504821.3899250031,1496504821.3923299313, -1.9775, -2.5903, -2.3054,-290.7715, 38.0859,115.2039
1496504821.3924069405,1496504821.3948121071, -1.9775, -2.5903, -2.3054,-290.7715, 38.0859,115.2039
1496504821.3948891163,1496504821.3972990513, -1.9775, -2.5903, -2.3054,-290.7715, 38.0859, 61.2793
1496504821.3974390030,1496504821.3997259140, -1.9775, -2.5903, -2.3054,-193.4814, 36.3922, 61.2793
1496504821.3998019695,1496504821.4020860195, -1.9775, -2.5903, -2.3054,-193.4814, 36.3922, 61.2793
1496504821.4021608829,1496504821.4044439793, -1.9775, -2.5903, -2.3054,-193.4814, 36.3922, 61.2793
1496504821.4045190811,1496504821.4068019390, -1.9775, -2.5903, -2.3054,-193.4814, 36.3922, 61.2793
1496504821.4068770409,1496504821.4091689587, -1.9775, -3.3965, -1.3975,-85.4797, 24.7955, 38.7573
1496504821.4092450142,1496504821.4115269184, -1.0596, -3.3965, -1.3975,-85.4797, 24.7955, 38.7573
1496504821.4116029739,1496504821.4138889313, -1.0596, -3.3965, -1.3975,-85.4797, 24.7955, 38.7573
1496504821.4139649868,1496504821.4162430763, -1.0596, -3.3965, -1.3975,-85.4797, 24.7955, 38.7573
1496504821.4163179398,1496504821.4187309742, -1.0596, -3.3965, -1.3975,-85.4797, 32.6080, 10.2692
1496504821.4188089371,1496504821.4210898876, -1.0596, -3.3965, -1.3975, 40.0085, 32.0740, 10.2692
1496504821.4211659431,1496504821.4234519005, -1.0596, -3.3965, -1.3975, 40.0085, 32.0740, 10.2692
1496504821.4235279560,1496504821.4258079529, -1.0596, -3.3965, -1.3975, 40.0085, 32.0740, 10.2692
1496504821.4258840084,1496504821.4283530712, -1.0596, -3.3965, -1.3975, 40.0085, 32.0740, 10.2692
1496504821.4284288883,1496504821.4308369160, -2.2207, -1.9939, -0.4290,117.3553, 35.8734,-47.0123
1496504821.4309160709,1496504821.4333219528, -2.2207, -1.9939, -0.4290,117.3553, 35.8734,-47.0123
1496504821.4334011078,1496504821.4358029366, -2.2207, -1.9939, -0.4290,117.3553, 35.8734,-47.0123
1496504821.4358820915,1496504821.4382989407, -2.2207, -1.9939, -0.4290,117.3553, 35.8734,-47.0123
1496504821.4383769035,1496504821.4407789707, -2.2207, -1.9939, -0.4290,102.4170,-10.2692,-98.6938
1496504821.4408578873,1496504821.4432621002, -2.2207, -1.9939, -0.4290,102.4170,-10.2692,-98.6938
1496504821.4433400631,1496504821.4457449913, -2.2207, -1.9939, -0.4290,102.4170,-10.2692,-98.6938
1496504821.4458220005,1496504821.4482378960, -2.2207, -1.9939, -0.4290,102.4170,-10.2692,-98.6938
1496504821.4483170509,1496504821.4507269859, -1.6504,  1.8613,  0.9592,102.4170,-18.6462,-96.3898
1496504821.4508049488,1496504821.4532110691, -1.6504,  1.8613,  0.9592, 71.4874,-18.6462,-96.3898
1496504821.4533979893,1496504821.4558050632, -1.6504,  1.8613,  0.9592, 71.4874,-18.6462,-96.3898
1496504821.4558830261,1496504821.4582591057, -1.6504,  1.8613,  0.9592, 71.4874,-18.6462,-96.3898
1496504821.4583370686,1496504821.4606199265, -1.6504,  1.8613,  0.9592, 71.4874,-18.6462,-53.4210
1496504821.4606978893,1496504821.4629769325, -1.6504,  1.8613,  0.9592, 66.6962, 27.2827,-51.9714
1496504821.4630548954,1496504821.4653348923, -1.6504,  1.8613,  0.9592, 66.6962, 27.2827,-51.9714
1496504821.4654130936,1496504821.4677751064, -1.6504,  1.8613,  0.9592, 66.6962, 27.2827,-51.9714
1496504821.4678540230,1496504821.4701418877, -1.0115,  1.1057,  0.4897, 66.6962, 27.2827,-51.9714
1496504821.4702188969,1496504821.4725029469, -1.0115,  1.1057,  0.4897, 42.5720, 33.2336,-56.5796
1496504821.4725799561,1496504821.4748649597, -1.0115,  1.1057,  0.4897, 42.5720, 33.2336,-56.5796
1496504821.4749419689,1496504821.4772291183, -1.0115,  1.1057,  0.4897, 42.5720, 33.2336,-56.5796
1496504821.4773049355,1496504821.4797739983, -1.0115,  1.1057,  0.4897, 42.5720, 33.2336,-56.5796
1496504821.4798519611,1496504821.4822230339, -1.0115,  1.1057,  0.4897, 42.5720, 37.1399,-85.7544
1496504821.4823000431,1496504821.4847860336, -1.0115,  1.1057,  0.4897, -9.1553, 36.7584,-85.7544
1496504821.4848630428,1496504821.4872589111, -1.0115,  1.1057,  0.4897, -9.1553, 36.7584,-85.7544
1496504821.4873340130,1496504821.4900450706, -1.0115, -0.8582, -0.2576, -9.1553, 36.7584,-85.7544
1496504821.4901239872,1496504821.4925329685, -1.0505, -0.8582, -0.2576, -9.1553, 36.7584,-108.9325
1496504821.4926099777,1496504821.4950149059, -1.0505, -0.8582, -0.2576,-62.8662, 44.0216,-108.9325
1496504821.4950940609,1496504821.4975149632, -1.0505, -0.8582, -0.2576,-62.8662, 44.0216,-108.9325
1496504821.4975929260,1496504821.4999990463, -1.0505, -0.8582, -0.2576,-62.8662, 44.0216,-108.9325
1496504821.5000779629,1496504821.5024840832, -1.0505, -0.8582, -0.2576,-62.8662, 44.0216,-108.9325
1496504821.5025639534,1496504821.5049688816, -1.0505, -0.8582, -0.2576,-76.0956, 41.5955,-96.4050
1496504821.5050489902,1496504821.5074720383, -1.0505, -0.8582, -0.2576,-76.0956, 41.5955,-96.4050
1496504821.5075509548,1496504821.5099539757, -1.2551, -0.0291,  0.4456,-76.0956, 41.5955,-96.4050
1496504821.5100350380,1496504821.5124409199, -1.2551, -0.0291,  0.4456,-76.0956, 41.5955,-96.4050
1496504821.5125229359,1496504821.5149309635, -1.2551, -0.0291,  0.4456,-51.1322, 35.7513,-59.6161
1496504821.5150101185,1496504821.5174300671, -1.2551, -0.0291,  0.4456,-51.1322, 35.7513,-59.6161
1496504821.5175108910,1496504821.5197949409, -1.2551, -0.0291,  0.4456,-51.1322, 35.7513,-59.6161
1496504821.5198740959,1496504821.5221560001, -1.2551, -0.0291,  0.4456,-51.1322, 35.7513,-59.6161
1496504821.5222349167,1496504821.5245180130, -1.2551, -0.0291,  0.4456,-51.1322, 31.8451,-40.3290
1496504821.5245969296,1496504821.5268781185, -1.2551, -0.0291,  0.4456,-32.4860, 34.4391,-40.3290
1496504821.5269560814,1496504821.5292420387, -1.2551, -0.3416, -0.2800,-32.4860, 34.4391,-40.3290
1496504821.5293209553,1496504821.5316050053, -1.0603, -0.3413, -0.2800,-32.4860, 34.4391,-40.3290
1496504821.5316839218,1496504821.5339579582, -1.0603, -0.3413, -0.2800,-32.4860, 34.4391,-40.3290
1496504821.5340359211,1496504821.5363171101, -1.0603, -0.3413, -0.2800,-20.6757, 29.8004,-44.9524
1496504821.5363950729,1496504821.5387289524, -1.0603, -0.3413, -0.2800,-20.6757, 29.8004,-44.9524
1496504821.5388069153,1496504821.5410950184, -1.0603, -0.3413, -0.2800,-20.6757, 29.8004,-44.9524
1496504821.5411729813,1496504821.5434548855, -1.0603, -0.3413, -0.2800,-20.6757, 29.8004,-44.9524
1496504821.5435330868,1496504821.5458140373, -1.0603, -0.3413, -0.2800,-20.6757, 24.0021,-41.0919
1496504821.5458929539,1496504821.5483529568, -1.0603, -0.3413, -0.2800,-10.1471, 24.0021,-41.0919
1496504821.5484321117,1496504821.5508270264, -0.9822, -0.0486, -0.2380,-10.1471, 24.0021,-41.0919
1496504821.5509068966,1496504821.5532960892, -0.9822, -0.0486, -0.2380,-10.1471, 24.0021,-41.0919
1496504821.5533759594,1496504821.5557639599, -0.9822, -0.0486, -0.2380,-10.1471, 24.0021,-29.3732
1496504821.5559599400,1496504821.5583970547, -0.9822, -0.0486, -0.2380, -1.3123, 22.2168,-29.9835
1496504821.5584759712,1496504821.5608661175, -0.9822, -0.0486, -0.2380, -1.3123, 22.2168,-29.9835
1496504821.5609428883,1496504821.5633320808, -0.9822, -0.0486, -0.2380, -1.3123, 22.2168,-29.9835
1496504821.5634100437,1496504821.5658009052, -0.9822, -0.0486, -0.2380, -1.3123, 22.2168,-29.9835
1496504821.5658791065,1496504821.5682899952, -0.9822, -0.0486, -0.2380,  7.7667, 20.8588,-27.0233
1496504821.5683679581,1496504821.5707719326, -1.0713,  0.0610, -0.2190,  7.7667, 20.8588,-27.0233
1496504821.5708489418,1496504821.5732560158, -1.0713,  0.0610, -0.2190,  7.7667, 20.8588,-27.0233
1496504821.5733330250,1496504821.5757420063, -1.0713,  0.0610, -0.2190,  7.7667, 20.8588,-27.0233
1496504821.5758180618,1496504821.5782399178, -1.0713,  0.0610, -0.2190,  8.2397, 18.0054,-27.9541
1496504821.5783181190,1496504821.5807290077, -1.0713,  0.0610, -0.2190,  8.2397, 18.0054,-27.9541
1496504821.5808069706,1496504821.5832149982, -1.0713,  0.0610, -0.2190,  8.2397, 18.0054,-27.9541
1496504821.5832929611,1496504821.5857000351, -1.0713,  0.0610, -0.2190,  8.2397, 18.0054,-27.9541
1496504821.5857779980,1496504821.5882270336, -1.0713,  0.0610, -0.2190,  8.2397, 17.7917,-26.2146
1496504821.5883049965,1496504821.5907120705, -1.2134,  0.2681, -0.0615,  1.6174, 17.7917,-26.2146
1496504821.5907890797,1496504821.5931959152, -1.2134,  0.2681, -0.0615,  1.6174, 17.7917,-26.2146
1496504821.5932729244,1496504821.5956940651, -1.2134,  0.2681, -0.0615,  1.6174, 17.7917,-26.2146
1496504821.5957698822,1496504821.5982360840, -1.2134,  0.2681, -0.0615,  1.6174, 17.7917,-25.4822
1496504821.5983119011,1496504821.6007189751, -1.2134,  0.2681, -0.0615, -9.7198, 18.7531,-25.4822
1496504821.6007959843,1496504821.6031999588, -1.2134,  0.2681, -0.0615, -9.7198, 18.7531,-25.4822
1496504821.6034169197,1496504821.6059570312, -1.2134,  0.2681, -0.0615, -9.7198, 18.7531,-25.4822
1496504821.6060359478,1496504821.6085989475, -1.2134,  0.2681, -0.0615, -9.7198, 18.7531,-29.3884
1496504821.6086781025,1496504821.6109619141, -1.2434,  0.2659, -0.1958,-22.5525, 19.5770,-27.8320
1496504821.6110401154,1496504821.6133251190, -1.2434,  0.2659, -0.1958,-22.5525, 19.5770,-27.8320
1496504821.6134040356,1496504821.6156880856, -1.2434,  0.2659, -0.1958,-22.5525, 19.5770,-27.8320
1496504821.6157660484,1496504821.6180999279, -1.2434,  0.2659, -0.1958,-22.5525, 19.5770,-27.8320
1496504821.6181778908,1496504821.6205871105, -1.2434,  0.2659, -0.1958,-32.7911, 20.5688,-29.4647
1496504821.6206660271,1496504821.6230731010, -1.2434,  0.2659, -0.1958,-32.7911, 20.5688,-29.4647
1496504821.6231510639,1496504821.6255569458, -1.2434,  0.2659, -0.1958,-32.7911, 20.5688,-29.4647
1496504821.6256349087,1496504821.6280550957, -1.2434,  0.2659, -0.1958,-32.7911, 20.5688,-29.4647
1496504821.6281330585,1496504821.6305370331, -1.2341,  0.2029, -0.2373,-40.6036, 20.4620,-31.0669
1496504821.6306149960,1496504821.6330199242, -1.2341,  0.2029, -0.2373,-39.1235, 20.4620,-31.0669
1496504821.6330990791,1496504821.6355049610, -1.2341,  0.2029, -0.2373,-39.1235, 20.4620,-31.0669
1496504821.6355841160,1496504821.6380069256, -1.2341,  0.2029, -0.2373,-39.1235, 20.4620,-31.0669
1496504821.6380860806,1496504821.6404778957, -1.2341,  0.2029, -0.2373,-39.1235, 20.4620,-32.6538
1496504821.6405570507,1496504821.6428389549, -1.2341,  0.2029, -0.2373,-40.8173, 18.7836,-32.6538
1496504821.6429169178,1496504821.6452031136, -1.2341,  0.2029, -0.2373,-40.8173, 18.7836,-32.6538
1496504821.6452810764,1496504821.6476109028, -1.2341,  0.2029, -0.2373,-40.8173, 18.7836,-32.6538
1496504821.6476900578,1496504821.6501019001, -1.2341,  0.1277, -0.2615,-40.8173, 18.7836,-32.6538
1496504821.6501810551,1496504821.6524729729, -1.1877,  0.1277, -0.2615,-42.8467, 16.3574,-33.8440
1496504821.6525518894,1496504821.6548349857, -1.1877,  0.1277, -0.2615,-42.8467, 16.3574,-33.8440
1496504821.6549129486,1496504821.6571950912, -1.1877,  0.1277, -0.2615,-42.8467, 16.3574,-33.8440
1496504821.6572730541,1496504821.6597509384, -1.1877,  0.1277, -0.2615,-42.8467, 16.3574,-33.8440
1496504821.6599400043,1496504821.6622269154, -1.1877,  0.1277, -0.2615,-46.7529, 13.9465,-34.5154
1496504821.6623060703,1496504821.6645870209, -1.1877,  0.1277, -0.2615,-43.5486, 13.9465,-34.5154
1496504821.6646649837,1496504821.6669509411, -1.1877,  0.1277, -0.2615,-43.5486, 13.9465,-34.5154
1496504821.6670300961,1496504821.6696279049, -1.1877,  0.1277, -0.2915,-43.5486, 13.9465,-34.5154
1496504821.6697080135,1496504821.6721029282, -1.2080,  0.1238, -0.2915,-43.5486, 13.9465,-38.4216
1496504821.6721830368,1496504821.6745750904, -1.2080,  0.1238, -0.2915,-42.9077, 11.1084,-35.5835
1496504821.6746540070,1496504821.6770439148, -1.2080,  0.1238, -0.2915,-42.9077, 11.1084,-35.5835
1496504821.6771249771,1496504821.6795868874, -1.2080,  0.1238, -0.2915,-42.9077, 11.1084,-35.5835
1496504821.6796660423,1496504821.6820659637, -1.2080,  0.1238, -0.2915,-42.9077, 11.1084,-35.5835
1496504821.6821451187,1496504821.6845400333, -1.2080,  0.1238, -0.2915,-42.1753,  7.5684,-37.1246
1496504821.6846170425,1496504821.6870050430, -1.2080,  0.1238, -0.2915,-42.1753,  7.5684,-37.1246
1496504821.6870830059,1496504821.6895930767, -1.2080,  0.1238, -0.3145,-42.1753,  7.5684,-37.1246
1496504821.6896719933,1496504821.6920700073, -1.2000,  0.0957, -0.3145,-42.1753,  7.5684,-37.1246
1496504821.6921489239,1496504821.6945390701, -1.2000,  0.0957, -0.3145,-40.4053,  4.3945,-37.1704
1496504821.6946170330,1496504821.6970090866, -1.2000,  0.0957, -0.3145,-40.4053,  4.3945,-37.1704
1496504821.6970870495,1496504821.6994249821, -1.2000,  0.0957, -0.3145,-40.4053,  4.3945,-37.1704
1496504821.6995029449,1496504821.7017860413, -1.2000,  0.0957, -0.3145,-40.4053,  4.3945,-37.1704
1496504821.7018630505,1496504821.7041449547, -1.2000,  0.0957, -0.3145,-40.4053,  0.4883,-38.0249
1496504821.7042229176,1496504821.7065010071, -1.2000,  0.0957, -0.3145,-38.9252,  2.3804,-38.0249
1496504821.7065789700,1496504821.7088730335, -1.2000,  0.0957, -0.3145,-38.9252,  2.3804,-38.0249
1496504821.7089500427,1496504821.7112340927, -1.1724,  0.0188, -0.2192,-38.9252,  2.3804,-38.0249
1496504821.7113099098,1496504821.7135930061, -1.1724,  0.0188, -0.2192,-38.9252,  2.3804,-38.0249
1496504821.7136690617,1496504821.7159550190, -1.1724,  0.0188, -0.2192,-37.0026, -0.1831,-38.7268
1496504821.7160320282,1496504821.7185280323, -1.1724,  0.0188, -0.2192,-37.0026, -0.1831,-38.7268
1496504821.7186059952,1496504821.7209730148, -1.1724,  0.0188, -0.2192,-37.0026, -0.1831,-38.7268
1496504821.7210509777,1496504821.7234859467, -1.1724,  0.0188, -0.2192,-37.0026, -0.1831,-38.7268
1496504821.7235729694,1496504821.7261099815, -1.1724,  0.0188, -0.2192,-35.2325, -2.6703,-38.3301
1496504821.7261869907,1496504821.7290201187, -1.1724,  0.0188, -0.2192,-35.2325, -2.6703,-38.3301
1496504821.7290980816,1496504821.7315089703, -1.1685,  0.0059, -0.0925,-35.2325, -2.6703,-38.3301
1496504821.7315878868,1496504821.7339940071, -1.1685,  0.0059, -0.0925,-35.2325, -2.6703,-38.3301
1496504821.7340719700,1496504821.7364790440, -1.1685,  0.0059, -0.0925,-35.0342, -4.0436,-37.0483
1496504821.7365579605,1496504821.7390151024, -1.1685,  0.0059, -0.0925,-35.0342, -4.0436,-37.0483
1496504821.7390940189,1496504821.7415010929, -1.1685,  0.0059, -0.0925,-35.0342, -4.0436,-37.0483
1496504821.7415781021,1496504821.7439858913, -1.1685,  0.0059, -0.0925,-35.0342, -4.0436,-37.0483
1496504821.7440629005,1496504821.7464718819, -1.1685,  0.0059, -0.0925,-35.0342, -4.0436,-35.1562
1496504821.7465500832,1496504821.7489240170, -1.1685,  0.0059, -0.0925,-35.2325, -4.8676,-35.1562
1496504821.7490019798,1496504821.7512819767, -1.1682, -0.0833, -0.0659,-35.2325, -4.8676,-35.1562
1496504821.7513580322,1496504821.7536389828, -1.1682, -0.0833, -0.0659,-35.2325, -4.8676,-35.1562
1496504821.7537140846,1496504821.7560009956, -1.1682, -0.0833, -0.0659,-35.2325, -4.8676,-35.1562
1496504821.7560770512,1496504821.7584059238, -1.1682, -0.0833, -0.0659,-34.5154, -5.6763,-33.0963
1496504821.7584819794,1496504821.7607638836, -1.1682, -0.0833, -0.0659,-34.5154, -5.6763,-33.0963
1496504821.7609438896,1496504821.7632310390, -1.1682, -0.0833, -0.0659,-34.5154, -5.6763,-33.0963
1496504821.7633080482,1496504821.7655909061, -1.1682, -0.0833, -0.0659,-34.5154, -5.6763,-33.0963
1496504821.7656669617,1496504821.7679970264, -1.1682, -0.0833, -0.0659,-30.6091, -4.5929,-31.0669
1496504821.7680730820,1496504821.7703568935, -1.1682, -0.1155, -0.0732,-30.4718, -4.5929,-31.0669
1496504821.7704339027,1496504821.7727200985, -1.1299, -0.1155, -0.0732,-30.4718, -4.5929,-31.0669
1496504821.7727971077,1496504821.7750790119, -1.1299, -0.1155, -0.0732,-30.4718, -4.5929,-31.0669
1496504821.7751550674,1496504821.7775640488, -1.1299, -0.1155, -0.0732,-30.4718, -4.5929,-31.0669
1496504821.7776420116,1496504821.7799279690, -1.1299, -0.1155, -0.0732,-25.8179, -4.6082,-28.7476
1496504821.7800049782,1496504821.7822909355, -1.1299, -0.1155, -0.0732,-25.8179, -4.6082,-28.7476
1496504821.7823669910,1496504821.7846539021, -1.1299, -0.1155, -0.0732,-25.8179, -4.6082,-28.7476
1496504821.7847309113,1496504821.7870149612, -1.1299, -0.1155, -0.0732,-25.8179, -4.6082,-28.7476
1496504821.7870919704,1496504821.7895739079, -1.1299, -0.1155, -0.0732,-21.4539, -4.6082,-26.8707
1496504821.7896509171,1496504821.7920620441, -1.1296, -0.1196, -0.1045,-21.4539, -4.6082,-26.8707
1496504821.7921409607,1496504821.7945439816, -1.1296, -0.1196, -0.1045,-21.4539, -4.6082,-26.8707
1496504821.7946219444,1496504821.7970290184, -1.1296, -0.1196, -0.1045,-21.4539, -4.6082,-26.8707
1496504821.7971060276,1496504821.7994239330, -1.1296, -0.1196, -0.1045,-21.4539, -4.6082,-24.4446
1496504821.7995009422,1496504821.8017840385, -1.1296, -0.1196, -0.1045,-17.5781, -4.6234,-24.4446
1496504821.8018600941,1496504821.8041479588, -1.1296, -0.1196, -0.1045,-17.5781, -4.6234,-24.4446
1496504821.8042240143,1496504821.8065059185, -1.1296, -0.1196, -0.1045,-17.5781, -4.6234,-24.4446
1496504821.8065819740,1496504821.8089540005, -1.1296, -0.1196, -0.1045,-17.5781, -4.6234,-24.4446
1496504821.8090310097,1496504821.8114368916, -1.0977, -0.0757, -0.1267,-14.0228, -4.5013,-22.1405
1496504821.8115160465,1496504821.8139228821, -1.0977, -0.0757, -0.1267,-14.0228, -4.5013,-22.1405
1496504821.8140010834,1496504821.8164079189, -1.0977, -0.0757, -0.1267,-14.0228, -4.5013,-22.1405
1496504821.8164839745,1496504821.8189051151, -1.0977, -0.0757, -0.1267,-14.0228, -4.5013,-22.1405
1496504821.8189809322,1496504821.8213870525, -1.0977, -0.0757, -0.1267,-11.7035, -4.3945,-20.0195
1496504821.8214640617,1496504821.8238649368, -1.0977, -0.0757, -0.1267,-11.7035, -4.3945,-20.0195
1496504821.8239419460,1496504821.8263459206, -1.0977, -0.0757, -0.1267,-11.7035, -4.3945,-20.0195
1496504821.8264229298,1496504821.8288431168, -1.0977, -0.0757, -0.1267,-11.7035, -4.3945,-20.0195
1496504821.8289198875,1496504821.8313250542, -1.1223, -0.0510, -0.0967,-11.7035, -4.1656,-19.9127
1496504821.8314020634,1496504821.8338139057, -1.1223, -0.0510, -0.0967,-11.2305, -4.1656,-19.9127
1496504821.8338899612,1496504821.8362989426, -1.1223, -0.0510, -0.0967,-11.2305, -4.1656,-19.9127
1496504821.8363749981,1496504821.8388249874, -1.1223, -0.0510, -0.0967,-11.2305, -4.1656,-19.9127
1496504821.8389010429,1496504821.8413128853, -1.1223, -0.0510, -0.0967,-11.2305, -4.1656,-19.3481
1496504821.8413898945,1496504821.8438749313, -1.1223, -0.0510, -0.0967,-12.3291, -4.0741,-19.3481
1496504821.8439528942,1496504821.8463509083, -1.1223, -0.0510, -0.0967,-12.3291, -4.0741,-19.3481
1496504821.8464269638,1496504821.8490409851, -1.1223, -0.0510, -0.0967,-12.3291, -4.0741,-19.3481
1496504821.8491189480,1496504821.8514020443, -1.1240, -0.0469, -0.0793,-12.3291, -4.0741,-19.3481
1496504821.8514780998,1496504821.8537640572, -1.1240, -0.0469, -0.0793,-13.6261, -3.7842,-18.7683
1496504821.8538401127,1496504821.8561229706, -1.1240, -0.0469, -0.0793,-13.6261, -3.7842,-18.7683
1496504821.8561990261,1496504821.8585491180, -1.1240, -0.0469, -0.0793,-13.6261, -3.7842,-18.7683
1496504821.8586258888,1496504821.8610351086, -1.1240, -0.0469, -0.0793,-13.6261, -3.7842,-18.7683
1496504821.8611109257,1496504821.8635199070, -1.1240, -0.0469, -0.0793,-15.3198, -3.6163,-18.3258
1496504821.8637070656,1496504821.8661160469, -1.1240, -0.0469, -0.0793,-15.3198, -3.6163,-18.3258
1496504821.8661921024,1496504821.8686139584, -1.1240, -0.0469, -0.0793,-15.3198, -3.6163,-18.3258
1496504821.8686909676,1496504821.8710980415, -1.1262, -0.0779, -0.0969,-15.3198, -3.6163,-18.3258
1496504821.8711740971,1496504821.8735790253, -1.1262, -0.0779, -0.0969,-15.3198, -4.0131,-18.0817
1496504821.8736550808,1496504821.8760619164, -1.1262, -0.0779, -0.0969,-16.2506, -4.0131,-18.0817
1496504821.8761389256,1496504821.8784899712, -1.1262, -0.0779, -0.0969,-16.2506, -4.0131,-18.0817
1496504821.8785669804,1496504821.8808538914, -1.1262, -0.0779, -0.0969,-16.2506, -4.0131,-18.0817
1496504821.8809289932,1496504821.8832099438, -1.1262, -0.0779, -0.0969,-16.2506, -4.0131,-18.0817
1496504821.8832850456,1496504821.8855700493, -1.1262, -0.0779, -0.0969,-16.5100, -3.7689,-16.7084
1496504821.8856461048,1496504821.8879799843, -1.1262, -0.0779, -0.0969,-16.5100, -3.7689,-16.7084
1496504821.8880569935,1496504821.8903350830, -1.1262, -0.0806, -0.0940,-16.5100, -3.7689,-16.7084
1496504821.8904109001,1496504821.8926999569, -1.1567, -0.0806, -0.0940,-16.5100, -3.7689,-16.7084
1496504821.8927769661,1496504821.8950600624, -1.1567, -0.0806, -0.0940,-16.1133, -3.9978,-15.6250
1496504821.8951370716,1496504821.8975598812, -1.1567, -0.0806, -0.0940,-16.1133, -3.9978,-15.6250
1496504821.8976368904,1496504821.8999199867, -1.1567, -0.0806, -0.0940,-16.1133, -3.9978,-15.6250
1496504821.8999960423,1496504821.9022789001, -1.1567, -0.0806, -0.0940,-16.1133, -3.9978,-15.6250
1496504821.9023559093,1496504821.9046440125, -1.1567, -0.0806, -0.0940,-16.1133, -3.9978,-14.2670
1496504821.9047200680,1496504821.9070050716, -1.1567, -0.0806, -0.0940,-14.6637, -4.0588,-14.2670
1496504821.9070808887,1496504821.9095530510, -1.1567, -0.0806, -0.0940,-14.6637, -4.0588,-14.2670
1496504821.9096291065,1496504821.9120268822, -1.1692, -0.0598, -0.1038,-14.6637, -4.0588,-14.2670
1496504821.9121038914,1496504821.9144940376, -1.1692, -0.0598, -0.1038,-14.6637, -4.0588,-14.2670
1496504821.9145710468,1496504821.9169650078, -1.1692, -0.0598, -0.1038,-12.7411, -4.1962,-13.0157
1496504821.9170420170,1496504821.9194490910, -1.1692, -0.0598, -0.1038,-12.7411, -4.1962,-13.0157
1496504821.9195261002,1496504821.9219090939, -1.1692, -0.0598, -0.1038,-12.7411, -4.1962,-13.0157
1496504821.9219849110,1496504821.9243760109, -1.1692, -0.0598, -0.1038,-12.7411, -4.1962,-13.0157
1496504821.9244530201,1496504821.9268450737, -1.1692, -0.0598, -0.1038,-10.9253, -4.6844,-11.9934
1496504821.9269220829,1496504821.9293138981, -1.1692, -0.0598, -0.1038,-10.9253, -4.6844,-11.9934
1496504821.9293909073,1496504821.9317820072, -1.1890, -0.0415, -0.1069,-10.9253, -4.6844,-11.9934
1496504821.9318580627,1496504821.9342460632, -1.1890, -0.0415, -0.1069,-10.9253, -4.6844,-11.9934
1496504821.9343221188,1496504821.9367160797, -1.1890, -0.0415, -0.1069,-10.9253, -4.6844,-11.8103
1496504821.9367930889,1496504821.9391980171, -1.1890, -0.0415, -0.1069, -9.4299, -5.0812,-11.8103
1496504821.9392731190,1496504821.9416630268, -1.1890, -0.0415, -0.1069, -9.4299, -5.0812,-11.8103
1496504821.9417378902,1496504821.9441249371, -1.1890, -0.0415, -0.1069, -9.4299, -5.0812,-11.8103
1496504821.9441990852,1496504821.9465858936, -1.1890, -0.0415, -0.1069, -9.4299, -5.0812,-11.8103
1496504821.9466600418,1496504821.9490580559, -1.1890, -0.0415, -0.1069, -8.4991, -5.9967,-11.9324
1496504821.9491319656,1496504821.9515240192, -1.1926,  0.0247, -0.0959, -8.4991, -5.9967,-11.9324
1496504821.9515979290,1496504821.9539868832, -1.1926,  0.0247, -0.0959, -8.4991, -5.9967,-11.9324
1496504821.9540600777,1496504821.9564499855, -1.1926,  0.0247, -0.0959, -8.4991, -5.9967,-11.9324
1496504821.9565229416,1496504821.9589290619, -1.1926,  0.0247, -0.0959, -9.6130, -6.1646,-13.1836
1496504821.9590029716,1496504821.9614069462, -1.1926,  0.0247, -0.0959, -9.6130, -6.1646,-13.1836
1496504821.9614820480,1496504821.9640719891, -1.1926,  0.0247, -0.0959, -9.6130, -6.1646,-13.1836
1496504821.9641480446,1496504821.9665460587, -1.1926,  0.0247, -0.0959, -9.6130, -6.1646,-13.1836
1496504821.9667289257,1496504821.9694330692, -1.1926,  0.0247, -0.0959,-13.2751, -7.2479,-16.3879
1496504821.9695110321,1496504821.9719169140, -1.2061,  0.0862, -0.1418,-13.2751, -7.2479,-16.3879
1496504821.9719939232,1496504821.9744019508, -1.2061,  0.0862, -0.1418,-13.2751, -7.2479,-16.3879
1496504821.9744789600,1496504821.9768850803, -1.2061,  0.0862, -0.1418,-13.2751, -7.2479,-16.3879
1496504821.9769608974,1496504821.9794149399, -1.2061,  0.0862, -0.1418,-17.1814, -8.3923,-23.1781
1496504821.9794929028,1496504821.9818990231, -1.2061,  0.0862, -0.1418,-17.4866, -8.3923,-23.1781
1496504821.9819769859,1496504821.9843909740, -1.2061,  0.0862, -0.1418,-17.4866, -8.3923,-23.1781
1496504821.9844679832,1496504821.9868750572, -1.2061,  0.0862, -0.1418,-17.4866, -8.3923,-23.1781
1496504821.9869520664,1496504821.9894099236, -1.2061,  0.0862, -0.1418,-17.4866, -8.3923,-31.4941
1496504821.9894878864,1496504821.9918920994, -1.1389,  0.1917, -0.1375,-22.0795, -8.4381,-31.4941
1496504821.9919679165,1496504821.9943740368, -1.1389,  0.1917, -0.1375,-22.0795, -8.4381,-31.4941
1496504821.9944510460,1496504821.9968600273, -1.1389,  0.1917, -0.1375,-22.0795, -8.4381,-31.4941
1496504821.9969379902,1496504821.9992430210, -1.1389,  0.1917, -0.1375,-22.0795, -8.4381,-31.4941
1496504821.9993209839,1496504822.0016000271, -1.1389,  0.1917, -0.1375,-28.4729,-11.3220,-40.8630
1496504822.0016779900,1496504822.0039629936, -1.1389,  0.1917, -0.1375,-28.4729,-11.3220,-40.8630
1496504822.0040409565,1496504822.0063230991, -1.1389,  0.1917, -0.1375,-28.4729,-11.3220,-40.8630
1496504822.0064010620,1496504822.0087609291, -1.1389,  0.1917, -0.1375,-28.4729,-11.3220,-40.8630
1496504822.0088388920,1496504822.0111160278, -1.1558,  0.0818, -0.2786,-32.3792,-15.7928,-50.2167
1496504822.0111949444,1496504822.0134770870, -1.1558,  0.0818, -0.2786,-33.0048,-15.7928,-50.2167
1496504822.0135550499,1496504822.0158390999, -1.1558,  0.0818, -0.2786,-33.0048,-15.7928,-50.2167
1496504822.0159170628,1496504822.0183229446, -1.1558,  0.0818, -0.2786,-33.0048,-15.7928,-50.2167
1496504822.0184009075,1496504822.0206909180, -1.1558,  0.0818, -0.2786,-33.0048,-15.7928,-50.2167
1496504822.0207691193,1496504822.0230538845, -1.1558,  0.0818, -0.2786,-33.2947,-18.6462,-54.6875
1496504822.0231320858,1496504822.0254130363, -1.1558,  0.0818, -0.2786,-33.2947,-18.6462,-54.6875
1496504822.0254909992,1496504822.0279390812, -1.1558,  0.0818, -0.2786,-33.2947,-18.6462,-54.6875
1496504822.0280170441,1496504822.0304279327, -1.1558,  0.0818, -0.3340,-33.2947,-18.6462,-54.6875
1496504822.0305070877,1496504822.0329139233, -1.2336, -0.0459, -0.3340,-28.7170,-22.9645,-57.1136
1496504822.0329930782,1496504822.0353989601, -1.2336, -0.0459, -0.3340,-28.7170,-22.9645,-57.1136
1496504822.0354769230,1496504822.0378949642, -1.2336, -0.0459, -0.3340,-28.7170,-22.9645,-57.1136
1496504822.0379729271,1496504822.0403769016, -1.2336, -0.0459, -0.3340,-28.7170,-22.9645,-57.1136
1496504822.0404551029,1496504822.0428640842, -1.2336, -0.0459, -0.3340,-16.9983,-27.0996,-57.4951
1496504822.0429430008,1496504822.0453529358, -1.2336, -0.0459, -0.3340,-18.6310,-27.0996,-57.4951
1496504822.0454330444,1496504822.0478329659, -1.2336, -0.0459, -0.3340,-18.6310,-27.0996,-57.4951
1496504822.0479118824,1496504822.0501980782, -1.2336, -0.0459, -0.2407,-18.6310,-27.0996,-57.4951
1496504822.0502769947,1496504822.0525579453, -1.2896, -0.1223, -0.2407,-18.6310,-27.0996,-57.4951
1496504822.0526359081,1496504822.0549199581, -1.2896, -0.1223, -0.2407, -7.0190,-30.9296,-57.8156
1496504822.0549969673,1496504822.0572750568, -1.2896, -0.1223, -0.2407, -7.0190,-30.9296,-57.8156
1496504822.0573511124,1496504822.0597989559, -1.2896, -0.1223, -0.2407, -7.0190,-30.9296,-57.8156
1496504822.0598750114,1496504822.0622849464, -1.2896, -0.1223, -0.2407, -7.0190,-30.9296,-57.8156
1496504822.0623610020,1496504822.0647668839, -1.2896, -0.1223, -0.2407,  2.9449,-33.0505,-58.5022
1496504822.0648429394,1496504822.0672531128, -1.2896, -0.1223, -0.2407,  2.9449,-33.0505,-58.5022
1496504822.0673298836,1496504822.0697419643, -1.2896, -0.1223, -0.2407,  2.9449,-33.0505,-58.5022
1496504822.0699279308,1496504822.0723409653, -1.2593, -0.0256, -0.1646,  2.9449,-33.0505,-58.5022
1496504822.0724170208,1496504822.0748269558, -1.2593, -0.0256, -0.1646,  6.7139,-34.4086,-60.9283
1496504822.0749039650,1496504822.0773160458, -1.2593, -0.0256, -0.1646,  6.7139,-34.4086,-60.9283
1496504822.0774369240,1496504822.0798490047, -1.2593, -0.0256, -0.1646,  6.7139,-34.4086,-60.9283
1496504822.0799260139,1496504822.0823340416, -1.2593, -0.0256, -0.1646,  6.7139,-34.4086,-60.9283
1496504822.0824110508,1496504822.0849599838, -1.2593, -0.0256, -0.1646,  6.7139,-35.5530,-64.4531
1496504822.0850379467,1496504822.0874500275, -1.2593, -0.0256, -0.1646,  6.1493,-35.5530,-64.4531
1496504822.0875270367,1496504822.0903398991, -1.2593, -0.0256, -0.0022,  6.1493,-35.5530,-64.4531
1496504822.0904181004,1496504822.0928230286, -1.2600, -0.0808, -0.0022,  6.1493,-35.5530,-64.4531
1496504822.0929009914,1496504822.0953071117, -1.2600, -0.0808, -0.0022,  6.1493,-35.5530,-68.9392
1496504822.0953850746,1496504822.0978128910, -1.2600, -0.0808, -0.0022,  3.4943,-36.6058,-68.9392
1496504822.0978899002,1496504822.1001749039, -1.2600, -0.0808, -0.0022,  3.4943,-36.6058,-68.9392
1496504822.1002519131,1496504822.1025381088, -1.2600, -0.0808, -0.0022,  3.4943,-36.6058,-68.9392
1496504822.1026160717,1496504822.1048998833, -1.2600, -0.0808, -0.0022,  3.4943,-36.6058,-68.9392
1496504822.1049759388,1496504822.1072540283, -1.2600, -0.0808, -0.0022,  1.0681,-37.5214,-71.9604
1496504822.1073319912,1496504822.1097400188, -1.2600, -0.0808, -0.0022,  1.0681,-37.5214,-71.9604
1496504822.1098179817,1496504822.1122300625, -1.3210, -0.1101,  0.0154,  1.0681,-37.5214,-71.9604
1496504822.1123080254,1496504822.1147100925, -1.3210, -0.1101,  0.0154,  1.0681,-37.5214,-71.9604
1496504822.1147890091,1496504822.1171939373, -1.3210, -0.1101,  0.0154, -1.6174,-39.2761,-73.5016
1496504822.1172719002,1496504822.1195790768, -1.3210, -0.1101,  0.0154, -1.6174,-39.2761,-73.5016
1496504822.1196560860,1496504822.1219398975, -1.3210, -0.1101,  0.0154, -1.6174,-39.2761,-73.5016
1496504822.1220169067,1496504822.1242969036, -1.3210, -0.1101,  0.0154, -1.6174,-39.2761,-73.5016
1496504822.1243739128,1496504822.1266570091, -1.3210, -0.1101,  0.0154, -1.6174,-39.2761,-75.4852
1496504822.1267330647,1496504822.1290249825, -1.3210, -0.1101,  0.0154, -3.7231,-42.3431,-75.4852
1496504822.1291019917,1496504822.1313850880, -1.3801, -0.0732, -0.0688, -3.7231,-42.3431,-75.4852
1496504822.1314620972,1496504822.1337449551, -1.3801, -0.0732, -0.0688, -3.7231,-42.3431,-75.4852
1496504822.1338200569,1496504822.1361050606, -1.3801, -0.0732, -0.0688, -3.7231,-42.3431,-75.4852
1496504822.1361799240,1496504822.1386020184, -1.3801, -0.0732, -0.0688, -4.7760,-44.1437,-78.0182
1496504822.1386790276,1496504822.1409640312, -1.3801, -0.0732, -0.0688, -4.7760,-44.1437,-78.0182
1496504822.1410400867,1496504822.1433269978, -1.3801, -0.0732, -0.0688, -4.7760,-44.1437,-78.0182
1496504822.1434030533,1496504822.1456871033, -1.3801, -0.0732, -0.0688, -4.7760,-44.1437,-78.0182
1496504822.1457619667,1496504822.1481831074, -1.3801, -0.0732, -0.0688, -4.7760,-44.1437,-81.7719
1496504822.1482601166,1496504822.1505410671, -1.3801, -0.0732, -0.0562, -4.1351,-44.9829,-81.7719
1496504822.1506168842,1496504822.1529009342, -1.4700, -0.0039, -0.0562, -4.1351,-44.9829,-81.7719
1496504822.1529769897,1496504822.1552610397, -1.4700, -0.0039, -0.0562, -4.1351,-44.9829,-81.7719
1496504822.1553380489,1496504822.1576631069, -1.4700, -0.0039, -0.0562, -4.1351,-44.9829,-81.7719
1496504822.1577389240,1496504822.1601490974, -1.4700, -0.0039, -0.0562, -2.8076,-45.2118,-85.1746
1496504822.1602261066,1496504822.1626369953, -1.4700, -0.0039, -0.0562, -2.8076,-45.2118,-85.1746
1496504822.1627130508,1496504822.1651210785, -1.4700, -0.0039, -0.0562, -2.8076,-45.2118,-85.1746
1496504822.1651990414,1496504822.1676208973, -1.4700, -0.0039, -0.0562, -2.8076,-45.2118,-85.1746
1496504822.1676990986,1496504822.1700999737, -1.4700, -0.0039, -0.0562, -3.1433,-45.9442,-90.2100
1496504822.1701769829,1496504822.1725859642, -1.5308,  0.0300, -0.0720, -3.1433,-45.9442,-90.2100
1496504822.1727719307,1496504822.1751799583, -1.5308,  0.0300, -0.0720, -3.1433,-45.9442,-90.2100
1496504822.1752560139,1496504822.1776669025, -1.5308,  0.0300, -0.0720, -3.1433,-45.9442,-90.2100
1496504822.1777429581,1496504822.1800220013, -1.5308,  0.0300, -0.0720, -3.1433,-46.8597,-97.0154
1496504822.1800990105,1496504822.1823759079, -1.5308,  0.0300, -0.0720, -3.8147,-46.8597,-97.0154
1496504822.1824510098,1496504822.1847319603, -1.5308,  0.0300, -0.0720, -3.8147,-46.8597,-97.0154
1496504822.1848089695,1496504822.1870870590, -1.5308,  0.0300, -0.0720, -3.8147,-46.8597,-97.0154
1496504822.1871631145,1496504822.1896240711, -1.5308,  0.0300, -0.0720, -3.8147,-46.8597,-97.0154
1496504822.1897010803,1496504822.1921019554, -1.5510,  0.1238, -0.0581, -4.0436,-47.5311,-103.8055
1496504822.1921799183,1496504822.1945850849, -1.5510,  0.1238, -0.0581, -4.0436,-47.5311,-103.8055
1496504822.1946640015,1496504822.1970698833, -1.5510,  0.1238, -0.0581, -4.0436,-47.5311,-103.8055
1496504822.1971468925,1496504822.1994779110, -1.5510,  0.1238, -0.0581, -4.0436,-47.5311,-103.8055
1496504822.1995561123,1496504822.2018420696, -1.5510,  0.1238, -0.0581, -4.6692,-46.9208,-111.2671
1496504822.2019190788,1496504822.2043480873, -1.5510,  0.1238, -0.0581, -4.6692,-46.9208,-111.2671
1496504822.2044260502,1496504822.2067160606, -1.5510,  0.1238, -0.0581, -4.6692,-46.9208,-111.2671
1496504822.2067921162,1496504822.2096331120, -1.5510,  0.1238, -0.0581, -4.6692,-46.9208,-111.2671
1496504822.2097129822,1496504822.2121179104, -1.6992,  0.2437,  0.0100, -6.8970,-48.4161,-119.7510
1496504822.2121961117,1496504822.2146019936, -1.6992,  0.2437,  0.0100, -6.8970,-48.4161,-119.7510
1496504822.2146790028,1496504822.2170848846, -1.6992,  0.2437,  0.0100, -6.8970,-48.4161,-119.7510
1496504822.2171609402,1496504822.2196118832, -1.6992,  0.2437,  0.0100, -6.8970,-48.4161,-119.7510
1496504822.2196888924,1496504822.2220969200, -1.6992,  0.2437,  0.0100, -6.8970,-52.3224,-129.8523
1496504822.2221729755,1496504822.2245790958, -1.6992,  0.2437,  0.0100, -8.6212,-51.7120,-129.8523
1496504822.2246570587,1496504822.2270660400, -1.6992,  0.2437,  0.0100, -8.6212,-51.7120,-129.8523
1496504822.2271430492,1496504822.2295560837, -1.6992,  0.2437,  0.0100, -8.6212,-51.7120,-129.8523
1496504822.2296350002,1496504822.2320420742, -1.8096,  0.5461, -0.0913, -8.6212,-51.7120,-129.8523
1496504822.2321200371,1496504822.2345280647, -1.8096,  0.5461, -0.0913,-12.0239,-52.3376,-139.5874
1496504822.2346069813,1496504822.2370159626, -1.8096,  0.5461, -0.0913,-12.0239,-52.3376,-139.5874
1496504822.2370951176,1496504822.2394089699, -1.8096,  0.5461, -0.0913,-12.0239,-52.3376,-139.5874
1496504822.2394878864,1496504822.2417690754, -1.8096,  0.5461, -0.0913,-12.0239,-52.3376,-139.5874
1496504822.2418479919,1496504822.2441298962, -1.8096,  0.5461, -0.0913,-19.9738,-50.3540,-148.3154
1496504822.2442080975,1496504822.2464909554, -1.8096,  0.5461, -0.0913,-19.9738,-50.3540,-148.3154
1496504822.2465701103,1496504822.2488579750, -1.8096,  0.5461, -0.0913,-19.9738,-50.3540,-148.3154
1496504822.2489368916,1496504822.2512190342, -1.8096,  0.3994,  0.0320,-19.9738,-50.3540,-148.3154
1496504822.2512979507,1496504822.2535800934, -1.8062,  0.3994,  0.0320,-19.9738,-50.3540,-153.9001
1496504822.2536599636,1496504822.2559409142, -1.8062,  0.3994,  0.0320,-27.4811,-52.7802,-153.9001
1496504822.2560200691,1496504822.2584769726, -1.8062,  0.3994,  0.0320,-27.4811,-52.7802,-153.9001
1496504822.2585558891,1496504822.2608449459, -1.8062,  0.3994,  0.0320,-27.4811,-52.7802,-153.9001
1496504822.2609250546,1496504822.2632119656, -1.8062,  0.3994,  0.0320,-27.4811,-52.7802,-153.9001
1496504822.2632899284,1496504822.2655711174, -1.8062,  0.3994,  0.0320,-27.9083,-58.5022,-159.8816
1496504822.2656500340,1496504822.2681179047, -1.8062,  0.3994,  0.0320,-27.9083,-58.5022,-159.8816
1496504822.2681970596,1496504822.2706110477, -1.8062,  0.3994, -0.3430,-27.9083,-58.5022,-159.8816
1496504822.2706899643,1496504822.2730920315, -1.5833,  0.4268, -0.3674,-27.9083,-58.5022,-159.8816
1496504822.2732799053,1496504822.2756929398, -1.5833,  0.4268, -0.3674,-35.3546,-59.0210,-161.6211
1496504822.2757740021,1496504822.2782239914, -1.5833,  0.4268, -0.3674,-35.3546,-59.0210,-161.6211
1496504822.2783029079,1496504822.2807140350, -1.5833,  0.4268, -0.3674,-35.3546,-59.0210,-161.6211
1496504822.2807929516,1496504822.2832009792, -1.5833,  0.4268, -0.3674,-35.3546,-59.0210,-161.6211
1496504822.2832798958,1496504822.2856810093, -1.5833,  0.4268, -0.3674,-35.3546,-55.1147,-160.1715
1496504822.2857589722,1496504822.2881760597, -1.5833,  0.4268, -0.3674,-61.1420,-54.9469,-160.1715
1496504822.2882540226,1496504822.2905349731, -1.5833,  0.4268, -0.5549,-61.1420,-54.9469,-160.1715
1496504822.2906129360,1496504822.2928969860, -1.3530,  0.0259, -0.5208,-61.1420,-54.9469,-160.1715
1496504822.2929759026,1496504822.2952640057, -1.3530,  0.0259, -0.5208,-61.1420,-54.9469,-160.1715
1496504822.2953429222,1496504822.2976629734, -1.3530,  0.0259, -0.5208,-92.8497,-47.9279,-157.1503
1496504822.2977430820,1496504822.3001489639, -1.3530,  0.0259, -0.5208,-92.8497,-47.9279,-157.1503
1496504822.3002281189,1496504822.3026371002, -1.3530,  0.0259, -0.5208,-92.8497,-47.9279,-157.1503
1496504822.3027169704,1496504822.3051259518, -1.3530,  0.0259, -0.5208,-92.8497,-47.9279,-157.1503
1496504822.3052051067,1496504822.3076250553, -1.3530,  0.0259, -0.5208,-111.9690,-43.9758,-154.6478
1496504822.3077039719,1496504822.3101160526, -1.3530,  0.0259, -0.5208,-111.9690,-43.9758,-154.6478
1496504822.3101949692,1496504822.3126010895, -1.2356, -0.2974, -0.2522,-111.9690,-43.9758,-154.6478
1496504822.3126790524,1496504822.3150870800, -1.2356, -0.2974, -0.2522,-111.9690,-43.9758,-154.6478
1496504822.3151650429,1496504822.3176128864, -1.2356, -0.2974, -0.2522,-123.6877,-40.2985,-147.1405
1496504822.3176920414,1496504822.3201019764, -1.2356, -0.2974, -0.2522,-122.1924,-40.2985,-147.1405
1496504822.3201799393,1496504822.3225870132, -1.2356, -0.2974, -0.2522,-122.1924,-40.2985,-147.1405
1496504822.3226649761,1496504822.3252499104, -1.2356, -0.2974, -0.2522,-122.1924,-40.2985,-147.1405
1496504822.3253300190,1496504822.3280520439, -1.2356, -0.2974, -0.2522,-122.1924,-40.2985,-125.1831
1496504822.3281319141,1496504822.3305389881, -1.2356, -0.2974, -0.2522,-117.7673,-28.3661,-125.1831
1496504822.3306169510,1496504822.3330190182, -1.1121, -0.5159, -0.2332,-117.7673,-28.3661,-125.1831
1496504822.3330979347,1496504822.3355031013, -1.1121, -0.5159, -0.2332,-117.7673,-28.3661,-125.1831
1496504822.3355810642,1496504822.3379950523, -1.1121, -0.5159, -0.2332,-117.7673,-28.3661,-105.6519
1496504822.3380749226,1496504822.3403589725, -1.1121, -0.5159, -0.2332,-96.0846,-32.6843,-106.6437
1496504822.3404369354,1496504822.3427259922, -1.1121, -0.5159, -0.2332,-96.0846,-32.6843,-106.6437
1496504822.3428039551,1496504822.3450860977, -1.1121, -0.5159, -0.2332,-96.0846,-32.6843,-106.6437
1496504822.3451640606,1496504822.3474628925, -1.1121, -0.5159, -0.2332,-96.0846,-32.6843,-106.6437
1496504822.3475410938,1496504822.3499510288, -1.1121, -0.5159, -0.2332,-74.0814,-39.5660,-90.6525
1496504822.3500289917,1496504822.3524351120, -0.9431, -0.6406, -0.4390,-74.0814,-39.5660,-90.6525
1496504822.3525140285,1496504822.3549220562, -0.9431, -0.6406, -0.4390,-74.0814,-39.5660,-90.6525
1496504822.3550009727,1496504822.3574171066, -0.9431, -0.6406, -0.4390,-74.0814,-39.5660,-90.6525
1496504822.3574960232,1496504822.3597769737, -0.9431, -0.6406, -0.4390,-74.0814,-40.6952,-77.6978
1496504822.3598549366,1496504822.3621370792, -0.9431, -0.6406, -0.4390,-58.5632,-40.6952,-77.6978
1496504822.3622140884,1496504822.3644969463, -0.9431, -0.6406, -0.4390,-58.5632,-40.6952,-77.6978
1496504822.3645749092,1496504822.3668549061, -0.9431, -0.6406, -0.4390,-58.5632,-40.6952,-77.6978
1496504822.3669331074,1496504822.3692190647, -0.9431, -0.6406, -0.4390,-58.5632,-40.6952,-77.6978
1496504822.3692970276,1496504822.3715789318, -0.9431, -0.7385, -0.2229,-52.3529,-44.7388,-63.1714
1496504822.3716568947,1496504822.3739368916, -0.7278, -0.7385, -0.2229,-52.3529,-44.7388,-63.1714
1496504822.3741159439,1496504822.3764059544, -0.7278, -0.7385, -0.2229,-52.3529,-44.7388,-63.1714
1496504822.3764851093,1496504822.3788979053, -0.7278, -0.7385, -0.2229,-52.3529,-44.7388,-63.1714
1496504822.3789770603,1496504822.3812570572, -0.7278, -0.7385, -0.2229,-52.0477,-51.9257,-48.6298
1496504822.3813350201,1496504822.3836190701, -0.7278, -0.7385, -0.2229,-52.0477,-51.9257,-48.6298
1496504822.3836970329,1496504822.3859810829, -0.7278, -0.7385, -0.2229,-52.0477,-51.9257,-48.6298
1496504822.3860580921,1496504822.3884820938, -0.7278, -0.7385, -0.2229,-52.0477,-51.9257,-48.6298
1496504822.3885600567,1496504822.3908390999, -0.7278, -0.7385, -0.0354,-52.0477,-51.9257,-21.2860
1496504822.3909180164,1496504822.3931980133, -0.5366, -0.2532, -0.0513,-69.6106,-67.3218,-22.8577
1496504822.3932778835,1496504822.3955590725, -0.5366, -0.2532, -0.0513,-69.6106,-67.3218,-22.8577
1496504822.3956379890,1496504822.3979589939, -0.5366, -0.2532, -0.0513,-69.6106,-67.3218,-22.8577
1496504822.3980379105,1496504822.4004430771, -0.5366, -0.2532, -0.0513,-69.6106,-67.3218,-22.8577
1496504822.4005219936,1496504822.4029319286, -0.5366, -0.2532, -0.0513,-97.1375,-62.6373, -7.8125
1496504822.4030098915,1496504822.4054160118, -0.5366, -0.2532, -0.0513,-97.1375,-62.6373, -7.8125
1496504822.4054939747,1496504822.4079129696, -0.5366, -0.2532, -0.0513,-97.1375,-62.6373, -7.8125
1496504822.4079909325,1496504822.4103989601, -0.5366, -0.2532, -0.0513,-97.1375,-62.6373, -7.8125
1496504822.4104781151,1496504822.4128830433, -0.4319,  0.3706, -0.5112,-128.3875,-49.6216,  8.8806
1496504822.4129619598,1496504822.4153680801, -0.4319,  0.3706, -0.5112,-127.5482,-49.6216,  8.8806
1496504822.4154460430,1496504822.4178650379, -0.4319,  0.3706, -0.5112,-127.5482,-49.6216,  8.8806
1496504822.4179420471,1496504822.4203479290, -0.4319,  0.3706, -0.5112,-127.5482,-49.6216,  8.8806
1496504822.4204258919,1496504822.4228270054, -0.4319,  0.3706, -0.5112,-127.5482,-49.6216, 36.7584
1496504822.4229059219,1496504822.4253139496, -0.4319,  0.3706, -0.5112,-136.3220,-43.7927, 36.7584
1496504822.4253931046,1496504822.4278130531, -0.4319,  0.3706, -0.5112,-136.3220,-43.7927, 36.7584
1496504822.4278919697,1496504822.4302990437, -0.4319,  0.3706, -0.5112,-136.3220,-43.7927, 36.7584
1496504822.4303789139,1496504822.4327828884, -0.4246,  0.3455, -0.4773,-136.3220,-43.7927, 36.7584
1496504822.4328610897,1496504822.4352660179, -0.4246,  0.3455, -0.4773,-136.1237,-39.6729, 56.3507
1496504822.4353458881,1496504822.4377539158, -0.4246,  0.3455, -0.4773,-136.1237,-39.6729, 56.3507
1496504822.4378340244,1496504822.4401140213, -0.4246,  0.3455, -0.4773,-136.1237,-39.6729, 56.3507
1496504822.4401929379,1496504822.4425849915, -0.4246,  0.3455, -0.4773,-136.1237,-39.6729, 56.3507
1496504822.4426651001,1496504822.4450769424, -0.4246,  0.3455, -0.4773,-141.4795,-37.2467, 69.9463
1496504822.4451580048,1496504822.4475400448, -0.4246,  0.3455, -0.4773,-141.4795,-37.2467, 69.9463
1496504822.4476280212,1496504822.4500789642, -0.4246,  0.3455, -0.4773,-141.4795,-37.2467, 69.9463
1496504822.4501600266,1496504822.4526479244, -0.3835,  0.2051, -0.5481,-141.4795,-37.2467, 69.9463
1496504822.4527289867,1496504822.4551239014, -0.3835,  0.2051, -0.5481,-137.5732,-34.9579, 88.7604
1496504822.4552030563,1496504822.4576079845, -0.3835,  0.2051, -0.5481,-137.7869,-34.9579, 88.7604
1496504822.4576869011,1496504822.4600620270, -0.3835,  0.2051, -0.5481,-137.7869,-34.9579, 88.7604
1496504822.4601418972,1496504822.4625620842, -0.3835,  0.2051, -0.5481,-137.7869,-34.9579, 88.7604
1496504822.4626419544,1496504822.4650480747, -0.3835,  0.2051, -0.5481,-137.7869,-34.9579,107.4066
1496504822.4651279449,1496504822.4675381184, -0.3835,  0.2051, -0.5481,-133.1024,-32.6385,107.4066
1496504822.4676170349,1496504822.4700250626, -0.3835,  0.2051, -0.5481,-133.1024,-32.6385,107.4066
1496504822.4701039791,1496504822.4725129604, -0.4878,  0.0525, -0.6399,-133.1024,-32.6385,107.4066
1496504822.4725930691,1496504822.4750030041, -0.4878,  0.0525, -0.6399,-133.1024,-32.6385,107.4066
1496504822.4750819206,1496504822.4775040150, -0.4878,  0.0525, -0.6399,-126.6937,-32.3029,123.0011
1496504822.4776968956,1496504822.4799799919, -0.4878,  0.0525, -0.6399,-126.6937,-32.3029,123.0011
1496504822.4800601006,1496504822.4823420048, -0.4878,  0.0525, -0.6399,-126.6937,-32.3029,123.0011
1496504822.4824221134,1496504822.4846999645, -0.4878,  0.0525, -0.6399,-126.6937,-32.3029,123.0011
1496504822.4847800732,1496504822.4870591164, -0.4878,  0.0525, -0.6399,-113.6169,-34.8511,136.0931
1496504822.4871380329,1496504822.4894230366, -0.4878,  0.0525, -0.6399,-113.6169,-34.8511,136.0931
1496504822.4895029068,1496504822.4917829037, -0.4878, -0.0266, -0.5969,-113.6169,-34.8511,136.0931
1496504822.4918620586,1496504822.4941420555, -0.6497, -0.0266, -0.5969,-113.6169,-34.8511,136.0931
1496504822.4942219257,1496504822.4965040684, -0.6497, -0.0266, -0.5969,-113.6169,-34.8511,151.7181
1496504822.4965829849,1496504822.4989159107, -0.6497, -0.0266, -0.5969,-96.4966,-40.2985,149.5819
1496504822.4989960194,1496504822.5012810230, -0.6497, -0.0266, -0.5969,-96.4966,-40.2985,149.5819
1496504822.5013599396,1496504822.5036470890, -0.6497, -0.0266, -0.5969,-96.4966,-40.2985,149.5819
1496504822.5037250519,1496504822.5060110092, -0.6497, -0.0266, -0.5969,-96.4966,-40.2985,149.5819
1496504822.5060899258,1496504822.5085570812, -0.6497, -0.0266, -0.5969,-80.7648,-46.8750,163.5132
1496504822.5086369514,1496504822.5110409260, -0.6497, -0.0266, -0.5969,-80.7648,-46.8750,163.5132
1496504822.5111210346,1496504822.5135240555, -0.8123, -0.0618, -0.4263,-80.7648,-46.8750,163.5132
1496504822.5136029720,1496504822.5160090923, -0.8123, -0.0618, -0.4263,-80.7648,-46.8750,163.5132
1496504822.5160889626,1496504822.5185029507, -0.8123, -0.0618, -0.4263,-65.1398,-52.7802,176.9104
1496504822.5185830593,1496504822.5209870338, -0.8123, -0.0618, -0.4263,-64.0106,-52.7802,176.9104
1496504822.5210669041,1496504822.5234720707, -0.8123, -0.0618, -0.4263,-64.0106,-52.7802,176.9104
1496504822.5235519409,1496504822.5259580612, -0.8123, -0.0618, -0.4263,-64.0106,-52.7802,176.9104
1496504822.5260379314,1496504822.5284540653, -0.8123, -0.0618, -0.4263,-64.0106,-52.7802,189.4073
1496504822.5285339355,1496504822.5309360027, -0.8123, -0.0618, -0.4263,-48.0652,-55.9235,189.4073
1496504822.5310149193,1496504822.5334150791, -0.9304, -0.0613, -0.3833,-48.0652,-55.9235,189.4073
1496504822.5334949493,1496504822.5359029770, -0.9304, -0.0613, -0.3833,-48.0652,-55.9235,189.4073
1496504822.5359830856,1496504822.5383830070, -0.9304, -0.0613, -0.3833,-48.0652,-55.9235,189.4073
1496504822.5384631157,1496504822.5407419205, -0.9304, -0.0613, -0.3833,-37.3077,-54.9316,200.3174
1496504822.5408210754,1496504822.5431060791, -0.9304, -0.0613, -0.3833,-37.3077,-54.9316,200.3174
1496504822.5431849957,1496504822.5454699993, -0.9304, -0.0613, -0.3833,-37.3077,-54.9316,200.3174
1496504822.5455489159,1496504822.5478630066, -0.9304, -0.0613, -0.3833,-37.3077,-54.9316,200.3174
1496504822.5479419231,1496504822.5503470898, -0.9304, -0.0613, -0.3833,-29.8462,-51.5442,211.4105
1496504822.5504260063,1496504822.5528309345, -1.0383, -0.1106, -0.3904,-29.8462,-51.5442,211.4105
1496504822.5529110432,1496504822.5553150177, -1.0383, -0.1106, -0.3904,-29.8462,-51.5442,211.4105
1496504822.5553939342,1496504822.5578119755, -1.0383, -0.1106, -0.3904,-29.8462,-51.5442,211.4105
1496504822.5578908920,1496504822.5602939129, -1.0383, -0.1106, -0.3904,-29.8462,-51.5442,222.1985
1496504822.5603730679,1496504822.5627830029, -1.0383, -0.1106, -0.3904,-22.5067,-48.3856,222.1985
1496504822.5628631115,1496504822.5653269291, -1.0383, -0.1106, -0.3904,-22.5067,-48.3856,222.1985
1496504822.5654079914,1496504822.5678141117, -1.0383, -0.1106, -0.3904,-22.5067,-48.3856,222.1985
1496504822.5678930283,1496504822.5706961155, -1.0383, -0.1106, -0.3904,-22.5067,-48.3856,229.9500
1496504822.5707769394,1496504822.5731830597, -1.1396, -0.0840, -0.4321,-17.2119,-44.2200,229.9500
1496504822.5732619762,1496504822.5756709576, -1.1396, -0.0840, -0.4321,-17.2119,-44.2200,229.9500
1496504822.5757489204,1496504822.5782051086, -1.1396, -0.0840, -0.4321,-17.2119,-44.2200,229.9500
1496504822.5782840252,1496504822.5806889534, -1.1396, -0.0840, -0.4321,-17.2119,-44.2200,229.9500
1496504822.5808749199,1496504822.5832839012, -1.1396, -0.0840, -0.4321,-18.8751,-36.8042,234.3597
1496504822.5833630562,1496504822.5857648849, -1.1396, -0.0840, -0.4321,-18.8751,-36.8042,234.3597
1496504822.5858430862,1496504822.5882189274, -1.1396, -0.0840, -0.4321,-18.8751,-36.8042,234.3597
1496504822.5882980824,1496504822.5905790329, -1.1396, -0.0840, -0.4321,-18.8751,-36.8042,234.3597
1496504822.5906579494,1496504822.5929439068, -1.3184,  0.0176, -0.5776,-29.0527,-26.9165,238.8916
1496504822.5930240154,1496504822.5953090191, -1.3184,  0.0176, -0.5776,-29.0527,-26.9165,238.8916
1496504822.5953879356,1496504822.5976829529, -1.3184,  0.0176, -0.5776,-29.0527,-26.9165,238.8916
1496504822.5977609158,1496504822.6000440121, -1.3184,  0.0176, -0.5776,-29.0527,-26.9165,238.8916
1496504822.6001229286,1496504822.6024069786, -1.3184,  0.0176, -0.5776,-29.0527,-26.9165,241.3788
1496504822.6024858952,1496504822.6047658920, -1.3184,  0.0176, -0.5776,-44.0063,-16.6473,241.3788
1496504822.6048440933,1496504822.6071310043, -1.3184,  0.0176, -0.5776,-44.0063,-16.6473,241.3788
1496504822.6072099209,1496504822.6095390320, -1.3184,  0.0176, -0.5776,-44.0063,-16.6473,241.3788
1496504822.6096179485,1496504822.6119019985, -1.3184,  0.0801, -0.6714,-44.0063,-16.6473,241.3788
1496504822.6119799614,1496504822.6142609119, -1.4880,  0.1174, -0.6714,-62.5153, -6.2408,241.7297
1496504822.6143391132,1496504822.6166229248, -1.4880,  0.1174, -0.6714,-62.5153, -6.2408,241.7297
1496504822.6166999340,1496504822.6190869808, -1.4880,  0.1174, -0.6714,-62.5153, -6.2408,241.7297
1496504822.6191649437,1496504822.6214530468, -1.4880,  0.1174, -0.6714,-62.5153, -6.2408,241.7297
1496504822.6215300560,1496504822.6238150597, -1.4880,  0.1174, -0.6714,-62.5153,  5.4779,241.4703
1496504822.6238930225,1496504822.6261830330, -1.4880,  0.1174, -0.6714,-82.0465,  5.5084,241.4703
1496504822.6262600422,1496504822.6287679672, -1.4880,  0.1174, -0.6714,-82.0465,  5.5084,241.4703
1496504822.6288468838,1496504822.6312530041, -1.4880,  0.1174, -0.6714,-82.0465,  5.5084,241.4703
1496504822.6313309669,1496504822.6337420940, -1.6885,  0.1577, -0.6860,-82.0465,  5.5084,241.4703
1496504822.6338191032,1496504822.6362218857, -1.6885,  0.1577, -0.6860,-102.2034, 17.5476,242.1722
1496504822.6363010406,1496504822.6386630535, -1.6885,  0.1577, -0.6860,-102.2034, 17.5476,242.1722
1496504822.6387419701,1496504822.6410250664, -1.6885,  0.1577, -0.6860,-102.2034, 17.5476,242.1722
1496504822.6411039829,1496504822.6433830261, -1.6885,  0.1577, -0.6860,-102.2034, 17.5476,242.1722
1496504822.6434619427,1496504822.6457440853, -1.6885,  0.1577, -0.6860,-121.4294, 28.5645,244.3390
1496504822.6458230019,1496504822.6481490135, -1.6885,  0.1577, -0.6860,-121.4294, 28.5645,244.3390
1496504822.6482279301,1496504822.6506309509, -1.6885,  0.1577, -0.6860,-121.4294, 28.5645,244.3390
1496504822.6507110596,1496504822.6531119347, -1.9170,  0.1316, -0.7080,-121.4294, 28.5645,244.3390
1496504822.6531920433,1496504822.6555941105, -1.9170,  0.1316, -0.7080,-121.4294, 36.3770,246.8414
1496504822.6556739807,1496504822.6580669880, -1.9170,  0.1316, -0.7080,-134.8724, 38.5437,246.8414
1496504822.6581459045,1496504822.6604299545, -1.9170,  0.1316, -0.7080,-134.8724, 38.5437,246.8414
1496504822.6605079174,1496504822.6627891064, -1.9170,  0.1316, -0.7080,-134.8724, 38.5437,246.8414
1496504822.6628680229,1496504822.6651439667, -1.9170,  0.1316, -0.7080,-134.8724, 38.5437,246.8414
1496504822.6652228832,1496504822.6675779819, -1.9170,  0.1316, -0.7080,-142.6849, 47.2107,248.9319
1496504822.6676580906,1496504822.6699450016, -1.9170,  0.1316, -0.7080,-142.6849, 47.2107,248.9319
1496504822.6700251102,1496504822.6723039150, -2.0420,  0.1187, -0.7263,-142.6849, 47.2107,248.9319
1496504822.6723840237,1496504822.6746680737, -2.0071,  0.1187, -0.7263,-142.6849, 47.2107,248.9319
1496504822.6747479439,1496504822.6770310402, -2.0071,  0.1187, -0.7263,-146.5912, 53.2990,249.8779
1496504822.6771121025,1496504822.6796278954, -2.0071,  0.1187, -0.7263,-146.8506, 53.2990,249.8779
1496504822.6798200607,1496504822.6821899414, -2.0071,  0.1187, -0.7263,-146.8506, 53.2990,249.8779
1496504822.6822700500,1496504822.6847379208, -2.0071,  0.1187, -0.7263,-146.8506, 53.2990,249.8779
1496504822.6848199368,1496504822.6872179508, -2.0071,  0.1187, -0.7263,-146.8506, 61.1115,248.5352
1496504822.6872990131,1496504822.6900520325, -2.0071,  0.1187, -0.7263,-147.0642, 58.7921,248.5352
1496504822.6901340485,1496504822.6924231052, -2.1946,  0.0134, -0.6377,-147.0642, 58.7921,248.5352
1496504822.6925020218,1496504822.6947870255, -2.2073,  0.0134, -0.6377,-147.0642, 58.7921,248.5352
1496504822.6948680878,1496504822.6971459389, -2.2073,  0.0134, -0.6377,-147.0642, 58.7921,248.5352
1496504822.6972260475,1496504822.6996650696, -2.2073,  0.0134, -0.6377,-139.7247, 63.7970,246.4142
1496504822.6997449398,1496504822.7021100521, -2.2073,  0.0134, -0.6377,-139.7247, 63.7970,246.4142
1496504822.7021899223,1496504822.7045478821, -2.2073,  0.0134, -0.6377,-139.7247, 63.7970,246.4142
1496504822.7046270370,1496504822.7069900036, -2.2073,  0.0134, -0.6377,-139.7247, 63.7970,246.4142
1496504822.7070689201,1496504822.7094790936, -2.2073,  0.0134, -0.6377,-125.9155, 62.1796,244.2017
1496504822.7095589638,1496504822.7119588852, -2.2073,  0.0134, -0.4507,-125.9155, 62.1796,244.2017
1496504822.7120389938,1496504822.7144451141, -2.3516, -0.2571, -0.4507,-125.9155, 62.1796,244.2017
1496504822.7145249844,1496504822.7169320583, -2.3516, -0.2571, -0.4507,-125.9155, 62.1796,244.2017
1496504822.7170109749,1496504822.7193210125, -2.3516, -0.2571, -0.4507,-90.7593, 55.5878,237.8693
1496504822.7194008827,1496504822.7216849327, -2.3516, -0.2571, -0.4507,-93.2007, 55.5878,237.8693
1496504822.7217640877,1496504822.7240419388, -2.3516, -0.2571, -0.4507,-93.2007, 55.5878,237.8693
1496504822.7241220474,1496504822.7263979912, -2.3516, -0.2571, -0.4507,-93.2007, 55.5878,237.8693
1496504822.7264780998,1496504822.7287878990, -2.3516, -0.2571, -0.4507,-93.2007, 55.5878,237.8693
1496504822.7288680077,1496504822.7311520576, -2.3516, -0.2571, -0.4507,-40.5579, 44.4641,227.2644
1496504822.7312309742,1496504822.7335100174, -2.0581, -1.0444, -0.4009,-40.5579, 44.4641,227.2644
1496504822.7335879803,1496504822.7358710766, -2.0581, -1.0444, -0.4009,-40.5579, 44.4641,227.2644
1496504822.7359490395,1496504822.7383189201, -2.0581, -1.0444, -0.4009,-40.5579, 44.4641,227.2644
1496504822.7383968830,1496504822.7406809330, -2.0581, -1.0444, -0.4009, 22.3389, 34.7595,212.1735
1496504822.7407600880,1496504822.7430469990, -2.0581, -1.0444, -0.4009, 22.3389, 34.7595,212.1735
1496504822.7431259155,1496504822.7454121113, -2.0581, -1.0444, -0.4009, 22.3389, 34.7595,212.1735
1496504822.7454900742,1496504822.7479400635, -2.0581, -1.0444, -0.4009, 22.3389, 34.7595,212.1735
1496504822.7480189800,1496504822.7504260540, -2.0581, -1.0444, -0.4009, 22.3389, 34.7595,195.8771
1496504822.7505049706,1496504822.7529098988, -1.4453, -1.8655, -0.5417, 85.6018, 32.4707,195.8771
1496504822.7529890537,1496504822.7553989887, -1.4453, -1.8655, -0.5417, 85.6018, 32.4707,195.8771
1496504822.7554769516,1496504822.7578909397, -1.4453, -1.8655, -0.5417, 85.6018, 32.4707,195.8771
1496504822.7579689026,1496504822.7603800297, -1.4453, -1.8655, -0.5417, 85.6018, 32.4707,195.8771
1496504822.7604598999,1496504822.7628591061, -1.4453, -1.8655, -0.5417,156.6772, 24.6582,168.8690
1496504822.7629361153,1496504822.7653410435, -1.4453, -1.8655, -0.5417,156.6772, 24.6582,168.8690
1496504822.7654190063,1496504822.7678370476, -1.4453, -1.8655, -0.5417,156.6772, 24.6582,168.8690
1496504822.7679140568,1496504822.7703170776, -1.4453, -1.8655, -0.5417,156.6772, 24.6582,168.8690
1496504822.7703950405,1496504822.7728009224, -1.1953, -2.6985, -0.1338,215.4999,  8.0109,118.1335
1496504822.7728779316,1496504822.7752850056, -1.2263, -2.6985, -0.1338,215.4999,  8.0109,118.1335
1496504822.7753610611,1496504822.7777900696, -1.2263, -2.6985, -0.1338,215.4999,  8.0109,118.1335
1496504822.7778658867,1496504822.7801508904, -1.2263, -2.6985, -0.1338,215.4999,  8.0109,118.1335
1496504822.7802269459,1496504822.7825069427, -1.2263, -2.6985, -0.1338,215.4999, -2.3193, 62.4237
1496504822.7826919556,1496504822.7849760056, -1.2263, -2.6985, -0.1338,253.6163, -2.3193, 62.4237
1496504822.7850511074,1496504822.7873411179, -1.2263, -2.6985, -0.1338,253.6163, -2.3193, 62.4237
1496504822.7874889374,1496504822.7897720337, -1.2263, -2.6985, -0.1338,253.6163, -2.3193, 62.4237
1496504822.7898480892,1496504822.7921340466, -1.2263, -0.3235, -0.7629,253.6163, -2.3193, 62.4237
1496504822.7922101021,1496504822.7944920063, -1.0220, -0.3718, -0.7629,250.0458,  5.6458, 23.4528
1496504822.7945690155,1496504822.7968509197, -1.0220, -0.3718, -0.7629,250.0458,  5.6458, 23.4528
1496504822.7969288826,1496504822.7992959023, -1.0220, -0.3718, -0.7629,250.0458,  5.6458, 23.4528
1496504822.7993741035,1496504822.8017430305, -1.0220, -0.3718, -0.7629,250.0458,  5.6458, 23.4528
1496504822.8018200397,1496504822.8043150902, -1.0220, -0.3718, -0.7629,199.4781, 24.7803, -4.8828
1496504822.8043920994,1496504822.8067700863, -1.0220, -0.3718, -0.7629,199.4781, 24.7803, -4.8828
1496504822.8068470955,1496504822.8095159531, -1.0220, -0.3718, -0.7629,199.4781, 24.7803, -4.8828
1496504822.8095951080,1496504822.8120040894, -1.0220, -0.3718, -0.1675,199.4781, 24.7803, -4.8828
1496504822.8120810986,1496504822.8144860268, -1.6721,  0.3506, -0.1675,125.2594, 17.7765,-31.2195
1496504822.8145658970,1496504822.8169710636, -1.6721,  0.3506, -0.1675,127.4414, 17.7765,-31.2195
1496504822.8170499802,1496504822.8194720745, -1.6721,  0.3506, -0.1675,127.4414, 17.7765,-31.2195
1496504822.8195509911,1496504822.8219549656, -1.6721,  0.3506, -0.1675,127.4414, 17.7765,-31.2195
1496504822.8220350742,1496504822.8244450092, -1.6721,  0.3506, -0.1675,127.4414, 17.7765,-46.8445
1496504822.8245239258,1496504822.8269309998, -1.6721,  0.3506, -0.1675, 51.2848, 10.5896,-46.8445
1496504822.8270089626,1496504822.8294279575, -1.6721,  0.3506, -0.1675, 51.2848, 10.5896,-46.8445
1496504822.8295059204,1496504822.8319129944, -1.6721,  0.3506, -0.1675, 51.2848, 10.5896,-46.8445
1496504822.8319919109,1496504822.8343958855, -1.0916,  0.1399, -0.1667, 51.2848, 10.5896,-46.8445
1496504822.8344740868,1496504822.8368771076, -1.0916,  0.1399, -0.1667, -2.0905, 18.9362,-65.1245
1496504822.8369541168,1496504822.8393189907, -1.0916,  0.1399, -0.1667, -2.0905, 18.9362,-65.1245
1496504822.8393959999,1496504822.8416769505, -1.0916,  0.1399, -0.1667, -2.0905, 18.9362,-65.1245
1496504822.8417549133,1496504822.8441300392, -1.0916,  0.1399, -0.1667, -2.0905, 18.9362,-65.1245
1496504822.8442070484,1496504822.8464860916, -1.0916,  0.1399, -0.1667,-34.2102, 24.7498,-87.6465
1496504822.8465650082,1496504822.8488559723, -1.0916,  0.1399, -0.1667,-34.2102, 24.7498,-87.6465
1496504822.8489360809,1496504822.8512189388, -1.0916,  0.1399, -0.1667,-34.2102, 24.7498,-87.6465
1496504822.8512969017,1496504822.8536119461, -0.9141, -0.5808,  0.1436,-34.2102, 24.7498,-87.6465
1496504822.8536911011,1496504822.8559789658, -0.9141, -0.5808,  0.1436,-34.2102, 24.7498,-103.2715
1496504822.8560590744,1496504822.8585019112, -0.9141, -0.5808,  0.1436,-53.0853, 27.7863,-101.6235
1496504822.8585820198,1496504822.8608601093, -0.9141, -0.5808,  0.1436,-53.0853, 27.7863,-101.6235
1496504822.8609390259,1496504822.8632190228, -0.9141, -0.5808,  0.1436,-53.0853, 27.7863,-101.6235
1496504822.8632988930,1496504822.8655779362, -0.9141, -0.5808,  0.1436,-53.0853, 27.7863,-101.6235
1496504822.8656580448,1496504822.8681280613, -0.9141, -0.5808,  0.1436,-64.3616, 29.8767,-108.1085
1496504822.8682088852,1496504822.8706150055, -0.9141, -0.5808,  0.1436,-64.3616, 29.8767,-108.1085
1496504822.8706960678,1496504822.8730978966, -1.1816, -0.7192,  0.2761,-64.3616, 29.8767,-108.1085
1496504822.8731780052,1496504822.8755819798, -1.1816, -0.7192,  0.2761,-64.3616, 29.8767,-108.1085
1496504822.8756599426,1496504822.8780820370, -1.1816, -0.7192,  0.2761,-65.9332, 30.6396,-112.8845
1496504822.8781599998,1496504822.8805639744, -1.1816, -0.7192,  0.2761,-65.9332, 30.6396,-112.8845
1496504822.8806428909,1496504822.8830499649, -1.1816, -0.7192,  0.2761,-65.9332, 30.6396,-112.8845
1496504